#isoforms=['chrX:153197884-153197769:-@chrX:153197568-153197524:-.A.withRI','chrX:153197884-153197769:-@chrX:153197568-153197524:-.B.dn_chrX:153197884-153197769:-@chrX:153197568-153197524:-.B.up']	exon_lens=('chrX:153197884-153197769:-@chrX:153197568-153197524:-.A.withRI',361),('chrX:153197884-153197769:-@chrX:153197568-153197524:-.B.dn',45),('chrX:153197884-153197769:-@chrX:153197568-153197524:-.B.up',116)	iters=5000	burn_in=500	lag=10	percent_accept=84.25	proposal_type=drift	counts=(0,0):1844,(0,1):890,(1,0):102,(1,1):375	assigned_counts=0:138,1:1229	chrom=chrX	strand=-	mRNA_starts=153197524,153197524	mRNA_ends=153197884,153197884
sampled_psi	log_score
0.0864,0.9136	-1223.58
0.0791,0.9209	-1223.47
0.0788,0.9212	-1223.49
0.0876,0.9124	-1223.68
0.0828,0.9172	-1223.42
0.0887,0.9113	-1223.78
0.0747,0.9253	-1223.85
0.0825,0.9175	-1223.41
0.0956,0.9044	-1224.84
0.0769,0.9231	-1223.61
0.0815,0.9185	-1223.41
0.0775,0.9225	-1223.57
0.0862,0.9138	-1223.57
0.0899,0.9101	-1223.93
0.0703,0.9297	-1224.61
0.0778,0.9222	-1223.54
0.0831,0.9169	-1223.42
0.0835,0.9165	-1223.43
0.0841,0.9159	-1223.45
0.0833,0.9167	-1223.43
0.0678,0.9322	-1225.21
0.0845,0.9155	-1223.47
0.0789,0.9211	-1223.48
0.0752,0.9248	-1223.79
0.0933,0.9067	-1224.42
0.0918,0.9082	-1224.18
0.0693,0.9307	-1224.83
0.0719,0.9281	-1224.28
0.0795,0.9205	-1223.45
0.0782,0.9218	-1223.51
0.0795,0.9205	-1223.45
0.0980,0.9020	-1225.35
0.0798,0.9202	-1223.44
0.0816,0.9184	-1223.41
0.0812,0.9188	-1223.41
0.0868,0.9132	-1223.61
0.0927,0.9073	-1224.32
0.1047,0.8953	-1227.13
0.0826,0.9174	-1223.42
0.0673,0.9327	-1225.37
0.0816,0.9184	-1223.41
0.0845,0.9155	-1223.47
0.0947,0.9053	-1224.67
0.0883,0.9117	-1223.74
0.0825,0.9175	-1223.41
0.0701,0.9299	-1224.64
0.0774,0.9226	-1223.57
0.0706,0.9294	-1224.53
0.0800,0.9200	-1223.44
0.0781,0.9219	-1223.53
0.0819,0.9181	-1223.41
0.0951,0.9049	-1224.75
0.0740,0.9260	-1223.94
0.0737,0.9263	-1223.99
0.0837,0.9163	-1223.44
0.0877,0.9123	-1223.69
0.0727,0.9273	-1224.14
0.0970,0.9030	-1225.13
0.0745,0.9255	-1223.88
0.0887,0.9113	-1223.79
0.0973,0.9027	-1225.19
0.0870,0.9130	-1223.63
0.0812,0.9188	-1223.41
0.1047,0.8953	-1227.13
0.0783,0.9217	-1223.51
0.0993,0.9007	-1225.67
0.0892,0.9108	-1223.84
0.0878,0.9122	-1223.70
0.0763,0.9237	-1223.67
0.0930,0.9070	-1224.37
0.0723,0.9277	-1224.21
0.1007,0.8993	-1226.00
0.0786,0.9214	-1223.49
0.0790,0.9210	-1223.48
0.0737,0.9263	-1223.98
0.0864,0.9136	-1223.58
0.0768,0.9232	-1223.62
0.1056,0.8944	-1227.42
0.0791,0.9209	-1223.47
0.0762,0.9238	-1223.68
0.0789,0.9211	-1223.48
0.0861,0.9139	-1223.56
0.0803,0.9197	-1223.43
0.0971,0.9029	-1225.16
0.0818,0.9182	-1223.41
0.0831,0.9169	-1223.42
0.0856,0.9144	-1223.53
0.0824,0.9176	-1223.41
0.0825,0.9175	-1223.41
0.0832,0.9168	-1223.43
0.0746,0.9254	-1223.86
0.0731,0.9269	-1224.07
0.0864,0.9136	-1223.58
0.0867,0.9133	-1223.60
0.0927,0.9073	-1224.32
0.0983,0.9017	-1225.42
0.0862,0.9138	-1223.57
0.0762,0.9238	-1223.68
0.0744,0.9256	-1223.88
0.0816,0.9184	-1223.41
0.0854,0.9146	-1223.51
0.0890,0.9110	-1223.82
0.0719,0.9281	-1224.27
0.0809,0.9191	-1223.42
0.0771,0.9229	-1223.60
0.0900,0.9100	-1223.94
0.0861,0.9139	-1223.56
0.0879,0.9121	-1223.70
0.0905,0.9095	-1224.00
0.0730,0.9270	-1224.10
0.0909,0.9091	-1224.05
0.0834,0.9166	-1223.43
0.0885,0.9115	-1223.77
0.0839,0.9161	-1223.45
0.0707,0.9293	-1224.52
0.0813,0.9187	-1223.41
0.0895,0.9105	-1223.87
0.0899,0.9101	-1223.92
0.0791,0.9209	-1223.47
0.0698,0.9302	-1224.70
0.0731,0.9269	-1224.07
0.0879,0.9121	-1223.71
0.0850,0.9150	-1223.50
0.0818,0.9182	-1223.41
0.0917,0.9083	-1224.17
0.0754,0.9246	-1223.76
0.0814,0.9186	-1223.41
0.0799,0.9201	-1223.44
0.0890,0.9110	-1223.82
0.0998,0.9002	-1225.77
0.0881,0.9119	-1223.72
0.0777,0.9223	-1223.55
0.0919,0.9081	-1224.20
0.0854,0.9146	-1223.52
0.0819,0.9181	-1223.41
0.0992,0.9008	-1225.64
0.0750,0.9250	-1223.81
0.0789,0.9211	-1223.48
0.0969,0.9031	-1225.12
0.0926,0.9074	-1224.30
0.0885,0.9115	-1223.77
0.0898,0.9102	-1223.91
0.0771,0.9229	-1223.59
0.0781,0.9219	-1223.53
0.0867,0.9133	-1223.61
0.0789,0.9211	-1223.48
0.0762,0.9238	-1223.68
0.0779,0.9221	-1223.54
0.0726,0.9274	-1224.15
0.0823,0.9177	-1223.41
0.0945,0.9055	-1224.63
0.0779,0.9221	-1223.54
0.0777,0.9223	-1223.55
0.0824,0.9176	-1223.41
0.0670,0.9330	-1225.44
0.0712,0.9288	-1224.41
0.0816,0.9184	-1223.41
0.0878,0.9122	-1223.70
0.0913,0.9087	-1224.10
0.0830,0.9170	-1223.42
0.0772,0.9228	-1223.59
0.0722,0.9278	-1224.23
0.0712,0.9288	-1224.42
0.0991,0.9009	-1225.61
0.0815,0.9185	-1223.41
0.0999,0.9001	-1225.80
0.0807,0.9193	-1223.42
0.0811,0.9189	-1223.41
0.0958,0.9042	-1224.89
0.0853,0.9147	-1223.51
0.0836,0.9164	-1223.44
0.0869,0.9131	-1223.62
0.0909,0.9091	-1224.05
0.0781,0.9219	-1223.52
0.1001,0.8999	-1225.85
0.0780,0.9220	-1223.53
0.0931,0.9069	-1224.39
0.0933,0.9067	-1224.42
0.0801,0.9199	-1223.43
0.0774,0.9226	-1223.57
0.0786,0.9214	-1223.49
0.0911,0.9089	-1224.09
0.0851,0.9149	-1223.50
0.0768,0.9232	-1223.62
0.0912,0.9088	-1224.10
0.0748,0.9252	-1223.83
0.0904,0.9096	-1223.99
0.0926,0.9074	-1224.31
0.0907,0.9093	-1224.03
0.0910,0.9090	-1224.07
0.0801,0.9199	-1223.43
0.0783,0.9217	-1223.51
0.0738,0.9262	-1223.96
0.0953,0.9047	-1224.79
0.0913,0.9087	-1224.11
0.0963,0.9037	-1224.99
0.0809,0.9191	-1223.42
0.0735,0.9265	-1224.01
0.0833,0.9167	-1223.43
0.0870,0.9130	-1223.63
0.0794,0.9206	-1223.46
0.0737,0.9263	-1223.99
0.0808,0.9192	-1223.42
0.0767,0.9233	-1223.63
0.0853,0.9147	-1223.51
0.0872,0.9128	-1223.64
0.0787,0.9213	-1223.49
0.0902,0.9098	-1223.96
0.0845,0.9155	-1223.47
0.0812,0.9188	-1223.41
0.0732,0.9268	-1224.06
0.0839,0.9161	-1223.45
0.0808,0.9192	-1223.42
0.0891,0.9109	-1223.84
0.0868,0.9132	-1223.61
0.0821,0.9179	-1223.41
0.0720,0.9280	-1224.26
0.0892,0.9108	-1223.84
0.0863,0.9137	-1223.57
0.0783,0.9217	-1223.51
0.0898,0.9102	-1223.92
0.0884,0.9116	-1223.76
0.0912,0.9088	-1224.09
0.0824,0.9176	-1223.41
0.0832,0.9168	-1223.43
0.0727,0.9273	-1224.14
0.0774,0.9226	-1223.57
0.0966,0.9034	-1225.04
0.0903,0.9097	-1223.97
0.0752,0.9248	-1223.79
0.0646,0.9354	-1226.23
0.0821,0.9179	-1223.41
0.0760,0.9240	-1223.69
0.0903,0.9097	-1223.98
0.0807,0.9193	-1223.42
0.0688,0.9312	-1224.96
0.0796,0.9204	-1223.45
0.0834,0.9166	-1223.43
0.0839,0.9161	-1223.45
0.0861,0.9139	-1223.56
0.0897,0.9103	-1223.90
0.0728,0.9272	-1224.12
0.0774,0.9226	-1223.58
0.0872,0.9128	-1223.64
0.0819,0.9181	-1223.41
0.0951,0.9049	-1224.74
0.0793,0.9207	-1223.46
0.0614,0.9386	-1227.48
0.0679,0.9321	-1225.20
0.0748,0.9252	-1223.84
0.0849,0.9151	-1223.49
0.0820,0.9180	-1223.41
0.0763,0.9237	-1223.67
0.0689,0.9311	-1224.92
0.0737,0.9263	-1223.99
0.0789,0.9211	-1223.48
0.0760,0.9240	-1223.70
0.1033,0.8967	-1226.73
0.0802,0.9198	-1223.43
0.0874,0.9126	-1223.66
0.0794,0.9206	-1223.46
0.0841,0.9159	-1223.46
0.0835,0.9165	-1223.43
0.0754,0.9246	-1223.77
0.0786,0.9214	-1223.49
0.0967,0.9033	-1225.06
0.0855,0.9145	-1223.52
0.0648,0.9352	-1226.14
0.0804,0.9196	-1223.42
0.0672,0.9328	-1225.38
0.0801,0.9199	-1223.43
0.0756,0.9244	-1223.73
0.0755,0.9245	-1223.75
0.0761,0.9239	-1223.69
0.0825,0.9175	-1223.41
0.0870,0.9130	-1223.62
0.0830,0.9170	-1223.42
0.0829,0.9171	-1223.42
0.0694,0.9306	-1224.81
0.0733,0.9267	-1224.05
0.0793,0.9207	-1223.46
0.0806,0.9194	-1223.42
0.0844,0.9156	-1223.47
0.0920,0.9080	-1224.22
0.0919,0.9081	-1224.19
0.0698,0.9302	-1224.72
0.0870,0.9130	-1223.63
0.0868,0.9132	-1223.61
0.0813,0.9187	-1223.41
0.0796,0.9204	-1223.45
0.0699,0.9301	-1224.70
0.0825,0.9175	-1223.41
0.0831,0.9169	-1223.42
0.0957,0.9043	-1224.86
0.0811,0.9189	-1223.41
0.0811,0.9189	-1223.41
0.0760,0.9240	-1223.70
0.0822,0.9178	-1223.41
0.0769,0.9231	-1223.61
0.0819,0.9181	-1223.41
0.0796,0.9204	-1223.45
0.0870,0.9130	-1223.63
0.0829,0.9171	-1223.42
0.0874,0.9126	-1223.66
0.0836,0.9164	-1223.44
0.1042,0.8958	-1226.99
0.0841,0.9159	-1223.45
0.0817,0.9183	-1223.41
0.0751,0.9249	-1223.79
0.0848,0.9152	-1223.49
0.0768,0.9232	-1223.63
0.0868,0.9132	-1223.61
0.0857,0.9143	-1223.54
0.0729,0.9271	-1224.10
0.0889,0.9111	-1223.81
0.0853,0.9147	-1223.51
0.0852,0.9148	-1223.51
0.0793,0.9207	-1223.46
0.0844,0.9156	-1223.47
0.0815,0.9185	-1223.41
0.0776,0.9224	-1223.55
0.0771,0.9229	-1223.60
0.0927,0.9073	-1224.32
0.0922,0.9078	-1224.24
0.0837,0.9163	-1223.44
0.0804,0.9196	-1223.43
0.0790,0.9210	-1223.48
0.0811,0.9189	-1223.41
0.0902,0.9098	-1223.96
0.0999,0.9001	-1225.80
0.0793,0.9207	-1223.46
0.0830,0.9170	-1223.42
0.0700,0.9300	-1224.66
0.0866,0.9134	-1223.60
0.0704,0.9296	-1224.57
0.0972,0.9028	-1225.17
0.0793,0.9207	-1223.46
0.0801,0.9199	-1223.43
0.0774,0.9226	-1223.57
0.0826,0.9174	-1223.42
0.0956,0.9044	-1224.85
0.0723,0.9277	-1224.21
0.0776,0.9224	-1223.56
0.1015,0.8985	-1226.22
0.0636,0.9364	-1226.59
0.0843,0.9157	-1223.46
0.0946,0.9054	-1224.64
0.0760,0.9240	-1223.70
0.0840,0.9160	-1223.45
0.0960,0.9040	-1224.93
0.0719,0.9281	-1224.27
0.0883,0.9117	-1223.75
0.0871,0.9129	-1223.63
0.0837,0.9163	-1223.44
0.0744,0.9256	-1223.88
0.0786,0.9214	-1223.50
0.0709,0.9291	-1224.47
0.0764,0.9236	-1223.66
0.0853,0.9147	-1223.51
0.0835,0.9165	-1223.43
0.0816,0.9184	-1223.41
0.0784,0.9216	-1223.51
0.0789,0.9211	-1223.48
0.0724,0.9276	-1224.19
0.0794,0.9206	-1223.46
0.0780,0.9220	-1223.53
0.0826,0.9174	-1223.41
0.0708,0.9292	-1224.49
0.0871,0.9129	-1223.64
0.0697,0.9303	-1224.73
0.0846,0.9154	-1223.47
0.0877,0.9123	-1223.69
0.0884,0.9116	-1223.76
0.0834,0.9166	-1223.43
0.0885,0.9115	-1223.76
0.0767,0.9233	-1223.63
0.0940,0.9060	-1224.53
0.0796,0.9204	-1223.45
0.0825,0.9175	-1223.41
0.0720,0.9280	-1224.26
0.0874,0.9126	-1223.66
0.0771,0.9229	-1223.60
0.0895,0.9105	-1223.87
0.0855,0.9145	-1223.52
0.0809,0.9191	-1223.42
0.0850,0.9150	-1223.49
0.0697,0.9303	-1224.74
0.0815,0.9185	-1223.41
0.0856,0.9144	-1223.53
0.0796,0.9204	-1223.45
0.1018,0.8982	-1226.30
0.0777,0.9223	-1223.55
0.0728,0.9272	-1224.12
0.0885,0.9115	-1223.77
0.0881,0.9119	-1223.73
0.0845,0.9155	-1223.47
0.0894,0.9106	-1223.87
0.0733,0.9267	-1224.04
0.0669,0.9331	-1225.48
0.0845,0.9155	-1223.47
0.0811,0.9189	-1223.41
0.0925,0.9075	-1224.29
0.0752,0.9248	-1223.79
0.0805,0.9195	-1223.42
0.0851,0.9149	-1223.50
0.0882,0.9118	-1223.73
0.0742,0.9258	-1223.91
0.0749,0.9251	-1223.82
0.0809,0.9191	-1223.42
0.0760,0.9240	-1223.70
0.0862,0.9138	-1223.56
0.0816,0.9184	-1223.41
0.0843,0.9157	-1223.46
0.0829,0.9171	-1223.42
0.0755,0.9245	-1223.75
0.0864,0.9136	-1223.58
0.0938,0.9062	-1224.50
0.0969,0.9031	-1225.10
0.0767,0.9233	-1223.63
0.0819,0.9181	-1223.41
0.0812,0.9188	-1223.41
0.0884,0.9116	-1223.76
0.0993,0.9007	-1225.67
0.1000,0.9000	-1225.84
0.0939,0.9061	-1224.52
0.0839,0.9161	-1223.45
0.0891,0.9109	-1223.83
0.0823,0.9177	-1223.41
0.0889,0.9111	-1223.81
0.0868,0.9132	-1223.61
0.0927,0.9073	-1224.33
0.0865,0.9135	-1223.59
0.0894,0.9106	-1223.86
0.0749,0.9251	-1223.82
0.0781,0.9219	-1223.53
0.0808,0.9192	-1223.42
0.0771,0.9229	-1223.60
0.0944,0.9056	-1224.61
0.0721,0.9279	-1224.25
0.0823,0.9177	-1223.41
0.0715,0.9285	-1224.36
0.0914,0.9086	-1224.13
0.0822,0.9178	-1223.41
0.0821,0.9179	-1223.41
0.0747,0.9253	-1223.84
0.0871,0.9129	-1223.63
0.0935,0.9065	-1224.46
0.0946,0.9054	-1224.65
0.0845,0.9155	-1223.47
0.0744,0.9256	-1223.88
0.0836,0.9164	-1223.44
0.0839,0.9161	-1223.45
0.0819,0.9181	-1223.41
0.0979,0.9021	-1225.33
0.0859,0.9141	-1223.54
0.0887,0.9113	-1223.78
0.0882,0.9118	-1223.74
0.0807,0.9193	-1223.42
0.0894,0.9106	-1223.87
0.0907,0.9093	-1224.03
0.0749,0.9251	-1223.82
0.0804,0.9196	-1223.42
0.0874,0.9126	-1223.66
0.0913,0.9087	-1224.12
0.0938,0.9062	-1224.50
0.0818,0.9182	-1223.41
0.0830,0.9170	-1223.42
0.0818,0.9182	-1223.41
0.0841,0.9159	-1223.46
0.0868,0.9132	-1223.61
0.0853,0.9147	-1223.51
0.0835,0.9165	-1223.43
0.0762,0.9238	-1223.67
0.0914,0.9086	-1224.12
0.0786,0.9214	-1223.49
0.0812,0.9188	-1223.41
0.0781,0.9219	-1223.53
0.0784,0.9216	-1223.50
0.0776,0.9224	-1223.56
0.0889,0.9111	-1223.81
0.0751,0.9249	-1223.79
0.0929,0.9071	-1224.36
0.0886,0.9114	-1223.78
0.0764,0.9236	-1223.66
0.0798,0.9202	-1223.44
0.0775,0.9225	-1223.57
0.0853,0.9147	-1223.51
0.0904,0.9096	-1223.99
0.0913,0.9087	-1224.12
0.0857,0.9143	-1223.53
0.0833,0.9167	-1223.43
0.0745,0.9255	-1223.87
0.0818,0.9182	-1223.41
0.0867,0.9133	-1223.60
0.0790,0.9210	-1223.47
0.0867,0.9133	-1223.60
0.0713,0.9287	-1224.39
0.0847,0.9153	-1223.48
0.0819,0.9181	-1223.41
0.0928,0.9072	-1224.33
0.0709,0.9291	-1224.46
0.0787,0.9213	-1223.49
0.0774,0.9226	-1223.57
0.0818,0.9182	-1223.41
0.0833,0.9167	-1223.43
0.0785,0.9215	-1223.50
0.0807,0.9193	-1223.42
0.0849,0.9151	-1223.49
0.0884,0.9116	-1223.76
0.0801,0.9199	-1223.43
0.0831,0.9169	-1223.42
0.0875,0.9125	-1223.67
0.0881,0.9119	-1223.72
0.0821,0.9179	-1223.41
0.1016,0.8984	-1226.25
0.0955,0.9045	-1224.82
0.0810,0.9190	-1223.42
0.0887,0.9113	-1223.79
0.0834,0.9166	-1223.43
0.0798,0.9202	-1223.44
0.0926,0.9074	-1224.30
0.0872,0.9128	-1223.64
0.0920,0.9080	-1224.21
0.0840,0.9160	-1223.45
0.0846,0.9154	-1223.47
0.0726,0.9274	-1224.15
0.0892,0.9108	-1223.84
0.0912,0.9088	-1224.10
0.0913,0.9087	-1224.12
0.0764,0.9236	-1223.66
0.0965,0.9035	-1225.03
0.0659,0.9341	-1225.78
0.0786,0.9214	-1223.50
0.0838,0.9162	-1223.44
0.0731,0.9269	-1224.07
0.0932,0.9068	-1224.40
0.0904,0.9096	-1223.99
0.0707,0.9293	-1224.52
0.0779,0.9221	-1223.54
0.0703,0.9297	-1224.60
0.0780,0.9220	-1223.53
0.0851,0.9149	-1223.50
0.0833,0.9167	-1223.43
0.0808,0.9192	-1223.42
0.0805,0.9195	-1223.42
0.0693,0.9307	-1224.82
0.0822,0.9178	-1223.41
0.0719,0.9281	-1224.27
0.0889,0.9111	-1223.81
0.0709,0.9291	-1224.48
0.0795,0.9205	-1223.45
0.0825,0.9175	-1223.41
0.0807,0.9193	-1223.42
0.0863,0.9137	-1223.58
0.0794,0.9206	-1223.46
0.0767,0.9233	-1223.63
0.0785,0.9215	-1223.50
0.0828,0.9172	-1223.42
0.0859,0.9141	-1223.54
0.0677,0.9323	-1225.26
0.0752,0.9248	-1223.78
0.0872,0.9128	-1223.64
0.0970,0.9030	-1225.14
0.0808,0.9192	-1223.42
0.0812,0.9188	-1223.41
0.0789,0.9211	-1223.48
0.0846,0.9154	-1223.48
0.0908,0.9092	-1224.04
0.0980,0.9020	-1225.36
0.0852,0.9148	-1223.51
0.0799,0.9201	-1223.44
0.0821,0.9179	-1223.41
0.0863,0.9137	-1223.57
0.0851,0.9149	-1223.50
0.0920,0.9080	-1224.21
0.0819,0.9181	-1223.41
0.0804,0.9196	-1223.43
0.0799,0.9201	-1223.44
0.0889,0.9111	-1223.81
0.0783,0.9217	-1223.51
0.0924,0.9076	-1224.27
0.0862,0.9138	-1223.56
0.0917,0.9083	-1224.17
0.0906,0.9094	-1224.01
0.0909,0.9091	-1224.06
0.0780,0.9220	-1223.53
0.0891,0.9109	-1223.83
0.0863,0.9137	-1223.58
0.0838,0.9162	-1223.44
0.0817,0.9183	-1223.41
0.0800,0.9200	-1223.43
0.0980,0.9020	-1225.35
0.0796,0.9204	-1223.45
0.0762,0.9238	-1223.68
0.0810,0.9190	-1223.41
0.1003,0.8997	-1225.91
0.0870,0.9130	-1223.63
0.0968,0.9032	-1225.09
0.0770,0.9230	-1223.60
0.0838,0.9162	-1223.44
0.0786,0.9214	-1223.49
0.0923,0.9077	-1224.25
0.0801,0.9199	-1223.43
0.0844,0.9156	-1223.47
0.0756,0.9244	-1223.74
0.0842,0.9158	-1223.46
0.0866,0.9134	-1223.60
0.0936,0.9064	-1224.48
0.0849,0.9151	-1223.49
0.0742,0.9258	-1223.91
0.0741,0.9259	-1223.93
0.0810,0.9190	-1223.41
0.0927,0.9073	-1224.32
0.0794,0.9206	-1223.46
0.0841,0.9159	-1223.46
0.0779,0.9221	-1223.53
0.0921,0.9079	-1224.22
0.0733,0.9267	-1224.04
0.0683,0.9317	-1225.09
0.0845,0.9155	-1223.47
0.0893,0.9107	-1223.85
0.0663,0.9337	-1225.66
0.1018,0.8982	-1226.31
0.0833,0.9167	-1223.43
0.0723,0.9277	-1224.22
0.0978,0.9022	-1225.31
0.0866,0.9134	-1223.60
0.0720,0.9280	-1224.26
0.1092,0.8908	-1228.60
0.0859,0.9141	-1223.54
0.0703,0.9297	-1224.61
0.0862,0.9138	-1223.56
0.0891,0.9109	-1223.83
0.0734,0.9266	-1224.02
0.1037,0.8963	-1226.83
0.0908,0.9092	-1224.04
0.0781,0.9219	-1223.52
0.0968,0.9032	-1225.10
0.0991,0.9009	-1225.62
0.0883,0.9117	-1223.75
0.0784,0.9216	-1223.50
0.1012,0.8988	-1226.15
0.0705,0.9295	-1224.55
0.0857,0.9143	-1223.53
0.0921,0.9079	-1224.23
0.0802,0.9198	-1223.43
0.0874,0.9126	-1223.66
0.0907,0.9093	-1224.03
0.0773,0.9227	-1223.58
0.0833,0.9167	-1223.43
0.0808,0.9192	-1223.42
0.0815,0.9185	-1223.41
0.0837,0.9163	-1223.44
0.1070,0.8930	-1227.85
0.0906,0.9094	-1224.02
0.0865,0.9135	-1223.59
0.0768,0.9232	-1223.62
0.0860,0.9140	-1223.55
0.0774,0.9226	-1223.57
0.0738,0.9262	-1223.97
0.0866,0.9134	-1223.60
0.1015,0.8985	-1226.24
0.0907,0.9093	-1224.02
0.0758,0.9242	-1223.71
0.0770,0.9230	-1223.60
0.0765,0.9235	-1223.65
0.0899,0.9101	-1223.93
0.0933,0.9067	-1224.43
0.0768,0.9232	-1223.62
0.0691,0.9309	-1224.88
0.0720,0.9280	-1224.26
0.0828,0.9172	-1223.42
0.0861,0.9139	-1223.56
0.0954,0.9046	-1224.80
0.0727,0.9273	-1224.15
0.0708,0.9292	-1224.50
0.0829,0.9171	-1223.42
0.0891,0.9109	-1223.83
0.0809,0.9191	-1223.42
0.1028,0.8972	-1226.59
0.0766,0.9234	-1223.64
0.0615,0.9385	-1227.44
0.0860,0.9140	-1223.55
0.0911,0.9089	-1224.09
0.0650,0.9350	-1226.09
0.0944,0.9056	-1224.61
0.0742,0.9258	-1223.92
0.0682,0.9318	-1225.10
0.0651,0.9349	-1226.05
0.1007,0.8993	-1226.02
0.0838,0.9162	-1223.44
0.0929,0.9071	-1224.36
0.0705,0.9295	-1224.55
0.0711,0.9289	-1224.43
0.0847,0.9153	-1223.48
0.0901,0.9099	-1223.95
0.0897,0.9103	-1223.90
0.0898,0.9102	-1223.91
0.0706,0.9294	-1224.54
0.0777,0.9223	-1223.55
0.0826,0.9174	-1223.41
0.0928,0.9072	-1224.33
0.0959,0.9041	-1224.91
0.0727,0.9273	-1224.14
0.0659,0.9341	-1225.78
0.0748,0.9252	-1223.84
0.0739,0.9261	-1223.95
0.0796,0.9204	-1223.45
0.0907,0.9093	-1224.02
0.0859,0.9141	-1223.55
0.0727,0.9273	-1224.14
0.0730,0.9270	-1224.10
0.0841,0.9159	-1223.45
0.0815,0.9185	-1223.41
0.0824,0.9176	-1223.41
0.0844,0.9156	-1223.47
0.0713,0.9287	-1224.40
0.0855,0.9145	-1223.52
0.0756,0.9244	-1223.74
0.0878,0.9122	-1223.70
0.0794,0.9206	-1223.46
0.0767,0.9233	-1223.63
0.0924,0.9076	-1224.28
0.0787,0.9213	-1223.49
0.0743,0.9257	-1223.90
0.0789,0.9211	-1223.48
0.0893,0.9107	-1223.85
0.0879,0.9121	-1223.71
0.1006,0.8994	-1225.98
0.0781,0.9219	-1223.52
0.0836,0.9164	-1223.44
0.0835,0.9165	-1223.43
0.0728,0.9272	-1224.12
0.0977,0.9023	-1225.29
0.0922,0.9078	-1224.24
0.0771,0.9229	-1223.60
0.0853,0.9147	-1223.51
0.0887,0.9113	-1223.79
0.0674,0.9326	-1225.32
0.0951,0.9049	-1224.75
0.0932,0.9068	-1224.40
0.0915,0.9085	-1224.14
0.0784,0.9216	-1223.51
0.0892,0.9108	-1223.84
0.0729,0.9271	-1224.10
0.0793,0.9207	-1223.46
0.0959,0.9041	-1224.90
0.0838,0.9162	-1223.44
0.0775,0.9225	-1223.56
0.0861,0.9139	-1223.56
0.0788,0.9212	-1223.48
0.0940,0.9060	-1224.55
0.0973,0.9027	-1225.20
0.0849,0.9151	-1223.49
0.0831,0.9169	-1223.42
0.0808,0.9192	-1223.42
0.0822,0.9178	-1223.41
0.0814,0.9186	-1223.41
0.0868,0.9132	-1223.61
0.0817,0.9183	-1223.41
0.0842,0.9158	-1223.46
0.0811,0.9189	-1223.41
0.0833,0.9167	-1223.43
0.0828,0.9172	-1223.42
0.0834,0.9166	-1223.43
0.0776,0.9224	-1223.56
0.0803,0.9197	-1223.43
0.0912,0.9088	-1224.09
0.0831,0.9169	-1223.42
0.0798,0.9202	-1223.44
0.0751,0.9249	-1223.79
0.0835,0.9165	-1223.43
0.0843,0.9157	-1223.46
0.0841,0.9159	-1223.45
0.0860,0.9140	-1223.55
0.0863,0.9137	-1223.57
0.0723,0.9277	-1224.21
0.0764,0.9236	-1223.66
0.0866,0.9134	-1223.60
0.0849,0.9151	-1223.49
0.0957,0.9043	-1224.86
0.0726,0.9274	-1224.16
0.0839,0.9161	-1223.45
0.0807,0.9193	-1223.42
0.0953,0.9047	-1224.78
0.0808,0.9192	-1223.42
0.0939,0.9061	-1224.53
0.0774,0.9226	-1223.57
0.0771,0.9229	-1223.60
0.0783,0.9217	-1223.51
0.0984,0.9016	-1225.45
0.0760,0.9240	-1223.70
0.0830,0.9170	-1223.42
0.0816,0.9184	-1223.41
0.0855,0.9145	-1223.52
0.0821,0.9179	-1223.41
0.0940,0.9060	-1224.54
0.0795,0.9205	-1223.45
0.0871,0.9129	-1223.64
0.0867,0.9133	-1223.60
0.0826,0.9174	-1223.42
0.0801,0.9199	-1223.43
0.0841,0.9159	-1223.45
0.0821,0.9179	-1223.41
0.0737,0.9263	-1223.98
0.0953,0.9047	-1224.79
0.0844,0.9156	-1223.47
0.0883,0.9117	-1223.74
0.0930,0.9070	-1224.36
0.0794,0.9206	-1223.46
0.0872,0.9128	-1223.65
0.0780,0.9220	-1223.53
0.0871,0.9129	-1223.63
0.0965,0.9035	-1225.03
0.0849,0.9151	-1223.49
0.0870,0.9130	-1223.62
0.0844,0.9156	-1223.47
0.0640,0.9360	-1226.43
0.0838,0.9162	-1223.44
0.0946,0.9054	-1224.66
0.0713,0.9287	-1224.40
0.0731,0.9269	-1224.08
0.0859,0.9141	-1223.55
0.0706,0.9294	-1224.54
0.0835,0.9165	-1223.43
0.0885,0.9115	-1223.77
0.0785,0.9215	-1223.50
0.0862,0.9138	-1223.57
0.0822,0.9178	-1223.41
0.0840,0.9160	-1223.45
0.0826,0.9174	-1223.42
0.0737,0.9263	-1223.98
0.0848,0.9152	-1223.49
0.0902,0.9098	-1223.96
0.0798,0.9202	-1223.44
0.0723,0.9277	-1224.21
0.0805,0.9195	-1223.42
0.0626,0.9374	-1226.99
0.0943,0.9057	-1224.60
0.0814,0.9186	-1223.41
0.0687,0.9313	-1224.97
0.0824,0.9176	-1223.41
0.0853,0.9147	-1223.51
0.0746,0.9254	-1223.86
0.0839,0.9161	-1223.45
0.0900,0.9100	-1223.94
0.0854,0.9146	-1223.51
0.0739,0.9261	-1223.95
0.0717,0.9283	-1224.31
0.0950,0.9050	-1224.72
0.0818,0.9182	-1223.41
0.0867,0.9133	-1223.60
0.0834,0.9166	-1223.43
0.0763,0.9237	-1223.67
0.0749,0.9251	-1223.83
0.0889,0.9111	-1223.81
0.0845,0.9155	-1223.47
0.0896,0.9104	-1223.89
0.0798,0.9202	-1223.44
0.0841,0.9159	-1223.45
0.0664,0.9336	-1225.62
0.1016,0.8984	-1226.25
0.0822,0.9178	-1223.41
0.0779,0.9221	-1223.54
0.0829,0.9171	-1223.42
0.0855,0.9145	-1223.52
0.0670,0.9330	-1225.44
0.0860,0.9140	-1223.55
0.0840,0.9160	-1223.45
0.0896,0.9104	-1223.88
0.0752,0.9248	-1223.79
0.0746,0.9254	-1223.86
0.0778,0.9222	-1223.54
0.0838,0.9162	-1223.44
0.0832,0.9168	-1223.43
0.0885,0.9115	-1223.77
0.0700,0.9300	-1224.68
0.0863,0.9137	-1223.57
0.0838,0.9162	-1223.44
0.0880,0.9120	-1223.72
0.0816,0.9184	-1223.41
0.0841,0.9159	-1223.46
0.0842,0.9158	-1223.46
0.0884,0.9116	-1223.76
0.0746,0.9254	-1223.86
0.0911,0.9089	-1224.09
0.0753,0.9247	-1223.77
0.0735,0.9265	-1224.01
0.0726,0.9274	-1224.15
0.0749,0.9251	-1223.81
0.0702,0.9298	-1224.63
0.0827,0.9173	-1223.42
0.0767,0.9233	-1223.63
0.0853,0.9147	-1223.51
0.0856,0.9144	-1223.52
0.0851,0.9149	-1223.50
0.0701,0.9299	-1224.65
0.0893,0.9107	-1223.85
0.0741,0.9259	-1223.93
0.0798,0.9202	-1223.44
0.0802,0.9198	-1223.43
0.0885,0.9115	-1223.77
0.0715,0.9285	-1224.35
0.0705,0.9295	-1224.56
0.0705,0.9295	-1224.55
0.0687,0.9313	-1224.97
0.0805,0.9195	-1223.42
0.0878,0.9122	-1223.70
0.0658,0.9342	-1225.82
0.0745,0.9255	-1223.88
0.0902,0.9098	-1223.97
0.0760,0.9240	-1223.70
0.0795,0.9205	-1223.45
0.0871,0.9129	-1223.63
0.0727,0.9273	-1224.13
0.0808,0.9192	-1223.42
0.0899,0.9101	-1223.92
0.0956,0.9044	-1224.85
0.0825,0.9175	-1223.41
0.0913,0.9087	-1224.11
0.0746,0.9254	-1223.86
0.0755,0.9245	-1223.76
0.0845,0.9155	-1223.47
0.0847,0.9153	-1223.48
0.0808,0.9192	-1223.42
0.0801,0.9199	-1223.43
0.0866,0.9134	-1223.59
0.0858,0.9142	-1223.54
0.0859,0.9141	-1223.55
0.0802,0.9198	-1223.43
0.0817,0.9183	-1223.41
0.0828,0.9172	-1223.42
0.0724,0.9276	-1224.19
0.0824,0.9176	-1223.41
0.0841,0.9159	-1223.45
0.0792,0.9208	-1223.47
0.0802,0.9198	-1223.43
0.0882,0.9118	-1223.74
0.0798,0.9202	-1223.44
0.0812,0.9188	-1223.41
0.0997,0.9003	-1225.75
0.0766,0.9234	-1223.64
0.0822,0.9178	-1223.41
0.0825,0.9175	-1223.41
0.0837,0.9163	-1223.44
0.0722,0.9278	-1224.23
0.0889,0.9111	-1223.81
0.0844,0.9156	-1223.46
0.0897,0.9103	-1223.90
0.0873,0.9127	-1223.65
0.0824,0.9176	-1223.41
0.0649,0.9351	-1226.12
0.0788,0.9212	-1223.48
0.0795,0.9205	-1223.45
0.0892,0.9108	-1223.84
0.0898,0.9102	-1223.91
0.0687,0.9313	-1224.99
0.0673,0.9327	-1225.35
0.0715,0.9285	-1224.35
0.0748,0.9252	-1223.84
0.0792,0.9208	-1223.47
0.0967,0.9033	-1225.07
0.0847,0.9153	-1223.48
0.0636,0.9364	-1226.60
0.0715,0.9285	-1224.36
0.0727,0.9273	-1224.14
0.0997,0.9003	-1225.77
0.0889,0.9111	-1223.81
0.0897,0.9103	-1223.90
0.0784,0.9216	-1223.51
0.0793,0.9207	-1223.46
0.0800,0.9200	-1223.44
0.0864,0.9136	-1223.58
0.0951,0.9049	-1224.74
0.0858,0.9142	-1223.54
0.0897,0.9103	-1223.90
0.0724,0.9276	-1224.20
0.0815,0.9185	-1223.41
0.0869,0.9131	-1223.62
0.0796,0.9204	-1223.45
0.0789,0.9211	-1223.48
0.0859,0.9141	-1223.55
0.0748,0.9252	-1223.84
0.0857,0.9143	-1223.54
0.0968,0.9032	-1225.09
0.0815,0.9185	-1223.41
0.0790,0.9210	-1223.47
0.0874,0.9126	-1223.66
0.0688,0.9312	-1224.95
0.0822,0.9178	-1223.41
0.0908,0.9092	-1224.05
0.0782,0.9218	-1223.52
0.0895,0.9105	-1223.88
0.0960,0.9040	-1224.92
0.0768,0.9232	-1223.62
0.0813,0.9187	-1223.41
0.0869,0.9131	-1223.62
0.0811,0.9189	-1223.41
0.0884,0.9116	-1223.76
0.0910,0.9090	-1224.07
0.0728,0.9272	-1224.12
0.1029,0.8971	-1226.61
0.0799,0.9201	-1223.44
0.0881,0.9119	-1223.73
0.0737,0.9263	-1223.98
0.0687,0.9313	-1224.97
0.0778,0.9222	-1223.55
0.0779,0.9221	-1223.53
0.0846,0.9154	-1223.48
0.0721,0.9279	-1224.23
0.0665,0.9335	-1225.59
0.0761,0.9239	-1223.68
0.0795,0.9205	-1223.45
0.0738,0.9262	-1223.97
0.0885,0.9115	-1223.76
0.0778,0.9222	-1223.54
0.0759,0.9241	-1223.70
0.0889,0.9111	-1223.81
0.0739,0.9261	-1223.96
0.0821,0.9179	-1223.41
0.0787,0.9213	-1223.49
0.0769,0.9231	-1223.61
0.0800,0.9200	-1223.44
0.0918,0.9082	-1224.19
0.0932,0.9068	-1224.41
0.0831,0.9169	-1223.42
0.0828,0.9172	-1223.42
0.0795,0.9205	-1223.45
0.0757,0.9243	-1223.73
0.0783,0.9217	-1223.51
0.0946,0.9054	-1224.66
0.0767,0.9233	-1223.63
0.0807,0.9193	-1223.42
0.0791,0.9209	-1223.47
0.0727,0.9273	-1224.14
0.0834,0.9166	-1223.43
0.0881,0.9119	-1223.72
0.0693,0.9307	-1224.83
0.0933,0.9067	-1224.42
0.0845,0.9155	-1223.47
0.0734,0.9266	-1224.03
0.0816,0.9184	-1223.41
0.0859,0.9141	-1223.55
0.0781,0.9219	-1223.52
0.0897,0.9103	-1223.90
0.0855,0.9145	-1223.52
0.0797,0.9203	-1223.45
0.0790,0.9210	-1223.47
0.0843,0.9157	-1223.46
0.0895,0.9105	-1223.88
0.0760,0.9240	-1223.69
0.0613,0.9387	-1227.55
0.0694,0.9306	-1224.81
0.0715,0.9285	-1224.36
0.0933,0.9067	-1224.43
0.1050,0.8950	-1227.23
0.0831,0.9169	-1223.42
0.0738,0.9262	-1223.97
0.0756,0.9244	-1223.74
0.0762,0.9238	-1223.68
0.0692,0.9308	-1224.84
0.0905,0.9095	-1224.00
0.0849,0.9151	-1223.49
0.0805,0.9195	-1223.42
0.0880,0.9120	-1223.71
0.0855,0.9145	-1223.52
0.0691,0.9309	-1224.87
0.0892,0.9108	-1223.84
0.0907,0.9093	-1224.03
0.0796,0.9204	-1223.45
0.0764,0.9236	-1223.66
0.0805,0.9195	-1223.42
0.0749,0.9251	-1223.82
0.0928,0.9072	-1224.34
0.0837,0.9163	-1223.44
0.0900,0.9100	-1223.94
0.0881,0.9119	-1223.73
0.0820,0.9180	-1223.41
0.0809,0.9191	-1223.42
0.0892,0.9108	-1223.84
0.0906,0.9094	-1224.01
0.0846,0.9154	-1223.47
0.0853,0.9147	-1223.51
0.0880,0.9120	-1223.71
0.0830,0.9170	-1223.42
0.0877,0.9123	-1223.69
0.0909,0.9091	-1224.06
0.0943,0.9057	-1224.60
0.0859,0.9141	-1223.54
0.0862,0.9138	-1223.57
0.0920,0.9080	-1224.21
0.0846,0.9154	-1223.47
0.0796,0.9204	-1223.45
0.0848,0.9152	-1223.48
0.0958,0.9042	-1224.87
0.0818,0.9182	-1223.41
0.0816,0.9184	-1223.41
0.0910,0.9090	-1224.06
0.0837,0.9163	-1223.44
0.0838,0.9162	-1223.44
0.0774,0.9226	-1223.57
0.0744,0.9256	-1223.89
0.0716,0.9284	-1224.33
0.0843,0.9157	-1223.46
0.0819,0.9181	-1223.41
0.0807,0.9193	-1223.42
0.0929,0.9071	-1224.36
0.0776,0.9224	-1223.56
0.0772,0.9228	-1223.58
0.0772,0.9228	-1223.59
0.0876,0.9124	-1223.68
0.0874,0.9126	-1223.66
0.0798,0.9202	-1223.44
0.0840,0.9160	-1223.45
0.0880,0.9120	-1223.71
0.0735,0.9265	-1224.02
0.0924,0.9076	-1224.28
0.0779,0.9221	-1223.54
0.0874,0.9126	-1223.66
0.0775,0.9225	-1223.56
0.0852,0.9148	-1223.50
0.0762,0.9238	-1223.68
0.0778,0.9222	-1223.54
0.0808,0.9192	-1223.42
0.0959,0.9041	-1224.91
0.0695,0.9305	-1224.77
0.0882,0.9118	-1223.74
0.0889,0.9111	-1223.80
0.0879,0.9121	-1223.71
0.0817,0.9183	-1223.41
0.0890,0.9110	-1223.81
0.0764,0.9236	-1223.66
0.0771,0.9229	-1223.60
0.0778,0.9222	-1223.54
0.0737,0.9263	-1223.99
0.0784,0.9216	-1223.51
0.0897,0.9103	-1223.90
0.0727,0.9273	-1224.14
0.0815,0.9185	-1223.41
0.0742,0.9258	-1223.91
0.0644,0.9356	-1226.27
0.0819,0.9181	-1223.41
0.0925,0.9075	-1224.29
0.0738,0.9262	-1223.97
0.0816,0.9184	-1223.41
0.0801,0.9199	-1223.43
0.0754,0.9246	-1223.76
0.0791,0.9209	-1223.47
0.0903,0.9097	-1223.97
0.0861,0.9139	-1223.56
0.0859,0.9141	-1223.55
0.0826,0.9174	-1223.42
0.0841,0.9159	-1223.45
0.0807,0.9193	-1223.42
0.0830,0.9170	-1223.42
0.0781,0.9219	-1223.52
0.0879,0.9121	-1223.71
0.0853,0.9147	-1223.51
0.0794,0.9206	-1223.46
0.0775,0.9225	-1223.56
0.0816,0.9184	-1223.41
0.0708,0.9292	-1224.50
0.0825,0.9175	-1223.41
0.0965,0.9035	-1225.03
0.0787,0.9213	-1223.49
0.0733,0.9267	-1224.04
0.0857,0.9143	-1223.53
0.0772,0.9228	-1223.59
0.0880,0.9120	-1223.72
0.0702,0.9298	-1224.62
0.0730,0.9270	-1224.09
0.0709,0.9291	-1224.47
0.0858,0.9142	-1223.54
0.0711,0.9289	-1224.44
0.0791,0.9209	-1223.47
0.0677,0.9323	-1225.23
0.0817,0.9183	-1223.41
0.0820,0.9180	-1223.41
0.0811,0.9189	-1223.41
0.0802,0.9198	-1223.43
0.0883,0.9117	-1223.74
0.0764,0.9236	-1223.66
0.0854,0.9146	-1223.52
0.0924,0.9076	-1224.28
0.0858,0.9142	-1223.54
0.0845,0.9155	-1223.47
0.0859,0.9141	-1223.54
0.0760,0.9240	-1223.69
0.0797,0.9203	-1223.45
0.0876,0.9124	-1223.68
0.0925,0.9075	-1224.29
0.0834,0.9166	-1223.43
0.0770,0.9230	-1223.60
0.0839,0.9161	-1223.45
0.0759,0.9241	-1223.71
0.0823,0.9177	-1223.41
0.0775,0.9225	-1223.56
0.0842,0.9158	-1223.46
0.0782,0.9218	-1223.51
0.0750,0.9250	-1223.81
0.0722,0.9278	-1224.22
0.0771,0.9229	-1223.60
0.0716,0.9284	-1224.34
0.0871,0.9129	-1223.63
0.0931,0.9069	-1224.38
0.0902,0.9098	-1223.97
0.0714,0.9286	-1224.38
0.0773,0.9227	-1223.58
0.0675,0.9325	-1225.30
0.0823,0.9177	-1223.41
0.0920,0.9080	-1224.22
0.0881,0.9119	-1223.72
0.0776,0.9224	-1223.56
0.0833,0.9167	-1223.43
0.0622,0.9378	-1227.13
0.0832,0.9168	-1223.43
0.0922,0.9078	-1224.24
0.0746,0.9254	-1223.86
0.0812,0.9188	-1223.41
0.0768,0.9232	-1223.62
0.0805,0.9195	-1223.42
0.0850,0.9150	-1223.49
0.0818,0.9182	-1223.41
0.0971,0.9029	-1225.16
0.0943,0.9057	-1224.61
0.0866,0.9134	-1223.59
0.0830,0.9170	-1223.42
0.0817,0.9183	-1223.41
0.0840,0.9160	-1223.45
0.0819,0.9181	-1223.41
0.0937,0.9063	-1224.50
0.0890,0.9110	-1223.82
0.0840,0.9160	-1223.45
0.0863,0.9137	-1223.58
0.0949,0.9051	-1224.70
0.0866,0.9134	-1223.60
0.0836,0.9164	-1223.44
0.0876,0.9124	-1223.68
0.0677,0.9323	-1225.25
0.0821,0.9179	-1223.41
0.0894,0.9106	-1223.86
0.0803,0.9197	-1223.43
0.0802,0.9198	-1223.43
0.0914,0.9086	-1224.13
0.0769,0.9231	-1223.61
0.0842,0.9158	-1223.46
0.0833,0.9167	-1223.43
0.0763,0.9237	-1223.66
0.0819,0.9181	-1223.41
0.0786,0.9214	-1223.50
0.0722,0.9278	-1224.23
0.1051,0.8949	-1227.26
0.0754,0.9246	-1223.76
0.0894,0.9106	-1223.87
0.0887,0.9113	-1223.79
0.0835,0.9165	-1223.43
0.0756,0.9244	-1223.74
0.0884,0.9116	-1223.76
0.0756,0.9244	-1223.74
0.0825,0.9175	-1223.41
0.0893,0.9107	-1223.85
0.0857,0.9143	-1223.53
0.0833,0.9167	-1223.43
0.0876,0.9124	-1223.68
0.0823,0.9177	-1223.41
0.0851,0.9149	-1223.50
0.0837,0.9163	-1223.44
0.0767,0.9233	-1223.63
0.0821,0.9179	-1223.41
0.0877,0.9123	-1223.69
0.0873,0.9127	-1223.65
0.0785,0.9215	-1223.50
0.0821,0.9179	-1223.41
0.0667,0.9333	-1225.54
0.0825,0.9175	-1223.41
0.0769,0.9231	-1223.62
0.0779,0.9221	-1223.54
0.0731,0.9269	-1224.07
0.0840,0.9160	-1223.45
0.0790,0.9210	-1223.48
0.0788,0.9212	-1223.48
0.0821,0.9179	-1223.41
0.0894,0.9106	-1223.87
0.0785,0.9215	-1223.50
0.0905,0.9095	-1224.00
0.0773,0.9227	-1223.58
0.0846,0.9154	-1223.48
0.0911,0.9089	-1224.08
0.0783,0.9217	-1223.51
0.0789,0.9211	-1223.48
0.0850,0.9150	-1223.50
0.0827,0.9173	-1223.42
0.0755,0.9245	-1223.74
0.0859,0.9141	-1223.55
0.0789,0.9211	-1223.48
0.0747,0.9253	-1223.84
0.1008,0.8992	-1226.03
0.0866,0.9134	-1223.59
0.0791,0.9209	-1223.47
0.0798,0.9202	-1223.44
0.0801,0.9199	-1223.43
0.0835,0.9165	-1223.43
0.0828,0.9172	-1223.42
0.0849,0.9151	-1223.49
0.0814,0.9186	-1223.41
0.0870,0.9130	-1223.63
0.0790,0.9210	-1223.47
0.0727,0.9273	-1224.14
0.0866,0.9134	-1223.59
0.0823,0.9177	-1223.41
0.0877,0.9123	-1223.69
0.0781,0.9219	-1223.52
0.0875,0.9125	-1223.67
0.0884,0.9116	-1223.75
0.0814,0.9186	-1223.41
0.0863,0.9137	-1223.57
0.0966,0.9034	-1225.05
0.0765,0.9235	-1223.65
0.0798,0.9202	-1223.44
0.0815,0.9185	-1223.41
0.0745,0.9255	-1223.87
0.0832,0.9168	-1223.43
0.0818,0.9182	-1223.41
0.0891,0.9109	-1223.83
0.0807,0.9193	-1223.42
0.0788,0.9212	-1223.48
0.0860,0.9140	-1223.55
0.0833,0.9167	-1223.43
0.0858,0.9142	-1223.54
0.0818,0.9182	-1223.41
0.0787,0.9213	-1223.49
0.0887,0.9113	-1223.78
0.0867,0.9133	-1223.60
0.0833,0.9167	-1223.43
0.0768,0.9232	-1223.62
0.0872,0.9128	-1223.64
0.0723,0.9277	-1224.20
0.0831,0.9169	-1223.42
0.0862,0.9138	-1223.57
0.0765,0.9235	-1223.65
0.0863,0.9137	-1223.57
0.0786,0.9214	-1223.50
0.0680,0.9320	-1225.15
0.0834,0.9166	-1223.43
0.0871,0.9129	-1223.64
0.0779,0.9221	-1223.54
0.0771,0.9229	-1223.59
0.0792,0.9208	-1223.46
0.0704,0.9296	-1224.58
0.0736,0.9264	-1223.99
0.0828,0.9172	-1223.42
0.0818,0.9182	-1223.41
0.0867,0.9133	-1223.60
0.0844,0.9156	-1223.47
0.0831,0.9169	-1223.42
0.0809,0.9191	-1223.42
0.0842,0.9158	-1223.46
0.0826,0.9174	-1223.41
0.0891,0.9109	-1223.83
0.0790,0.9210	-1223.47
0.0890,0.9110	-1223.82
0.0779,0.9221	-1223.54
0.0822,0.9178	-1223.41
0.0800,0.9200	-1223.44
0.0894,0.9106	-1223.87
0.0838,0.9162	-1223.44
0.0729,0.9271	-1224.10
0.0778,0.9222	-1223.54
0.0959,0.9041	-1224.91
0.0751,0.9249	-1223.79
0.0838,0.9162	-1223.44
0.0763,0.9237	-1223.67
0.0783,0.9217	-1223.51
0.0661,0.9339	-1225.70
0.0993,0.9007	-1225.66
0.0742,0.9258	-1223.91
0.0859,0.9141	-1223.55
0.0767,0.9233	-1223.63
0.0754,0.9246	-1223.76
0.0682,0.9318	-1225.10
0.0924,0.9076	-1224.27
0.0738,0.9262	-1223.96
0.0723,0.9277	-1224.20
0.0826,0.9174	-1223.41
0.0780,0.9220	-1223.53
0.0845,0.9155	-1223.47
0.0765,0.9235	-1223.65
0.1048,0.8952	-1227.16
0.0920,0.9080	-1224.21
0.0724,0.9276	-1224.19
0.0803,0.9197	-1223.43
0.0815,0.9185	-1223.41
0.0707,0.9293	-1224.51
0.0787,0.9213	-1223.49
0.0816,0.9184	-1223.41
0.0679,0.9321	-1225.19
0.0845,0.9155	-1223.47
0.0990,0.9010	-1225.59
0.0722,0.9278	-1224.23
0.0852,0.9148	-1223.51
0.0799,0.9201	-1223.44
0.0764,0.9236	-1223.65
0.0816,0.9184	-1223.41
0.0936,0.9064	-1224.48
0.0746,0.9254	-1223.85
0.0878,0.9122	-1223.70
0.0767,0.9233	-1223.63
0.0818,0.9182	-1223.41
0.0709,0.9291	-1224.48
0.0842,0.9158	-1223.46
0.0829,0.9171	-1223.42
0.0978,0.9022	-1225.31
0.0737,0.9263	-1223.98
0.0932,0.9068	-1224.40
0.0675,0.9325	-1225.29
0.0689,0.9311	-1224.93
0.0764,0.9236	-1223.66
0.0797,0.9203	-1223.45
0.0786,0.9214	-1223.50
0.0730,0.9270	-1224.10
0.0800,0.9200	-1223.43
0.0751,0.9249	-1223.80
0.0746,0.9254	-1223.86
0.0748,0.9252	-1223.84
0.0819,0.9181	-1223.41
0.0706,0.9294	-1224.53
0.0843,0.9157	-1223.46
0.0645,0.9355	-1226.26
0.0727,0.9273	-1224.13
0.0739,0.9261	-1223.95
0.0808,0.9192	-1223.42
0.0771,0.9229	-1223.60
0.0796,0.9204	-1223.45
0.0752,0.9248	-1223.79
0.0765,0.9235	-1223.64
0.0841,0.9159	-1223.45
0.0783,0.9217	-1223.51
0.0798,0.9202	-1223.44
0.0717,0.9283	-1224.32
0.0733,0.9267	-1224.05
0.0807,0.9193	-1223.42
0.0874,0.9126	-1223.66
0.0669,0.9331	-1225.47
0.0803,0.9197	-1223.43
0.0770,0.9230	-1223.61
0.0775,0.9225	-1223.57
0.0906,0.9094	-1224.01
0.0796,0.9204	-1223.45
0.0760,0.9240	-1223.70
0.0870,0.9130	-1223.63
0.0783,0.9217	-1223.51
0.0790,0.9210	-1223.47
0.0969,0.9031	-1225.11
0.0890,0.9110	-1223.82
0.0780,0.9220	-1223.53
0.0924,0.9076	-1224.27
0.0754,0.9246	-1223.77
0.0848,0.9152	-1223.49
0.0982,0.9018	-1225.40
0.0801,0.9199	-1223.43
0.0883,0.9117	-1223.74
0.0763,0.9237	-1223.67
0.0753,0.9247	-1223.77
0.0849,0.9151	-1223.49
0.0958,0.9042	-1224.89
0.0691,0.9309	-1224.87
0.1005,0.8995	-1225.96
0.0885,0.9115	-1223.76
0.0857,0.9143	-1223.54
0.0897,0.9103	-1223.90
0.0864,0.9136	-1223.58
0.0772,0.9228	-1223.59
0.0829,0.9171	-1223.42
0.1031,0.8969	-1226.65
0.0783,0.9217	-1223.51
0.0742,0.9258	-1223.91
0.0884,0.9116	-1223.75
0.0867,0.9133	-1223.60
0.0844,0.9156	-1223.47
0.1123,0.8877	-1229.74
0.0865,0.9135	-1223.59
0.0685,0.9315	-1225.03
0.1002,0.8998	-1225.87
0.0843,0.9157	-1223.46
0.0931,0.9069	-1224.38
0.1039,0.8961	-1226.89
0.0815,0.9185	-1223.41
0.0742,0.9258	-1223.91
0.0877,0.9123	-1223.69
0.0955,0.9045	-1224.83
0.0904,0.9096	-1223.99
0.0841,0.9159	-1223.45
0.0870,0.9130	-1223.63
0.0786,0.9214	-1223.49
0.0935,0.9065	-1224.46
0.0903,0.9097	-1223.97
0.1016,0.8984	-1226.24
0.0798,0.9202	-1223.44
0.0979,0.9021	-1225.33
0.0799,0.9201	-1223.44
0.0823,0.9177	-1223.41
0.0884,0.9116	-1223.75
0.0911,0.9089	-1224.08
0.0884,0.9116	-1223.75
0.0925,0.9075	-1224.29
0.0828,0.9172	-1223.42
0.0832,0.9168	-1223.43
0.0830,0.9170	-1223.42
0.0779,0.9221	-1223.54
0.0903,0.9097	-1223.98
0.0708,0.9292	-1224.49
0.0843,0.9157	-1223.46
0.0885,0.9115	-1223.76
0.0897,0.9103	-1223.89
0.0726,0.9274	-1224.15
0.0822,0.9178	-1223.41
0.0724,0.9276	-1224.19
0.0768,0.9232	-1223.62
0.0831,0.9169	-1223.42
0.0955,0.9045	-1224.83
0.0785,0.9215	-1223.50
0.0734,0.9266	-1224.03
0.0694,0.9306	-1224.80
0.0895,0.9105	-1223.88
0.0776,0.9224	-1223.55
0.0840,0.9160	-1223.45
0.0815,0.9185	-1223.41
0.0773,0.9227	-1223.58
0.0841,0.9159	-1223.45
0.0954,0.9046	-1224.80
0.0840,0.9160	-1223.45
0.0859,0.9141	-1223.55
0.0841,0.9159	-1223.45
0.0774,0.9226	-1223.57
0.0771,0.9229	-1223.60
0.0805,0.9195	-1223.42
0.0897,0.9103	-1223.90
0.0756,0.9244	-1223.74
0.0888,0.9112	-1223.80
0.0782,0.9218	-1223.52
0.0825,0.9175	-1223.41
0.0751,0.9249	-1223.79
0.0784,0.9216	-1223.51
0.0825,0.9175	-1223.41
0.0950,0.9050	-1224.72
0.0954,0.9046	-1224.80
0.0959,0.9041	-1224.91
0.0743,0.9257	-1223.89
0.0798,0.9202	-1223.44
0.0855,0.9145	-1223.52
0.0806,0.9194	-1223.42
0.0832,0.9168	-1223.43
0.0842,0.9158	-1223.46
0.0753,0.9247	-1223.77
0.0775,0.9225	-1223.56
0.0897,0.9103	-1223.90
0.0930,0.9070	-1224.37
0.0778,0.9222	-1223.54
0.0790,0.9210	-1223.47
0.0716,0.9284	-1224.33
0.0825,0.9175	-1223.41
0.0849,0.9151	-1223.49
0.0764,0.9236	-1223.66
0.0704,0.9296	-1224.57
0.0768,0.9232	-1223.62
0.0663,0.9337	-1225.66
0.0778,0.9222	-1223.55
0.0954,0.9046	-1224.81
0.0791,0.9209	-1223.47
0.0850,0.9150	-1223.49
0.0932,0.9068	-1224.40
0.0878,0.9122	-1223.70
0.0862,0.9138	-1223.56
0.0940,0.9060	-1224.55
0.0669,0.9331	-1225.48
0.0934,0.9066	-1224.44
0.0872,0.9128	-1223.65
0.0913,0.9087	-1224.11
0.0846,0.9154	-1223.48
0.0850,0.9150	-1223.50
0.0672,0.9328	-1225.38
0.0897,0.9103	-1223.90
0.0850,0.9150	-1223.49
0.0863,0.9137	-1223.57
0.0865,0.9135	-1223.59
0.0848,0.9152	-1223.48
0.0721,0.9279	-1224.24
0.0851,0.9149	-1223.50
0.0890,0.9110	-1223.82
0.0774,0.9226	-1223.57
0.1031,0.8969	-1226.66
0.0872,0.9128	-1223.64
0.0729,0.9271	-1224.11
0.0789,0.9211	-1223.48
0.0881,0.9119	-1223.73
0.0719,0.9281	-1224.29
0.0969,0.9031	-1225.11
0.0760,0.9240	-1223.70
0.0809,0.9191	-1223.42
0.0917,0.9083	-1224.18
0.0894,0.9106	-1223.86
0.0703,0.9297	-1224.60
0.1074,0.8926	-1227.99
0.0764,0.9236	-1223.66
0.0729,0.9271	-1224.10
0.0938,0.9062	-1224.51
0.0870,0.9130	-1223.63
0.0782,0.9218	-1223.52
0.0994,0.9006	-1225.68
0.0822,0.9178	-1223.41
0.0924,0.9076	-1224.28
0.0954,0.9046	-1224.80
0.0798,0.9202	-1223.44
0.0803,0.9197	-1223.43
0.0991,0.9009	-1225.62
0.0828,0.9172	-1223.42
0.0916,0.9084	-1224.15
0.0912,0.9088	-1224.10
0.0787,0.9213	-1223.49
0.0812,0.9188	-1223.41
0.0969,0.9031	-1225.10
0.0870,0.9130	-1223.62
0.0900,0.9100	-1223.94
0.0906,0.9094	-1224.01
0.0754,0.9246	-1223.76
0.0796,0.9204	-1223.45
0.0721,0.9279	-1224.24
0.0833,0.9167	-1223.43
0.0797,0.9203	-1223.44
0.0991,0.9009	-1225.61
0.0805,0.9195	-1223.42
0.0857,0.9143	-1223.53
0.0821,0.9179	-1223.41
0.0828,0.9172	-1223.42
0.0854,0.9146	-1223.52
0.1007,0.8993	-1226.02
0.0778,0.9222	-1223.55
0.0954,0.9046	-1224.81
0.0697,0.9303	-1224.73
0.0838,0.9162	-1223.44
0.0920,0.9080	-1224.21
0.0968,0.9032	-1225.08
0.0739,0.9261	-1223.96
0.0966,0.9034	-1225.04
0.0687,0.9313	-1224.97
0.0801,0.9199	-1223.43
0.0957,0.9043	-1224.86
0.0831,0.9169	-1223.42
0.0811,0.9189	-1223.41
0.0779,0.9221	-1223.53
0.0872,0.9128	-1223.64
0.0742,0.9258	-1223.91
0.0883,0.9117	-1223.75
0.0732,0.9268	-1224.06
0.0913,0.9087	-1224.11
0.0844,0.9156	-1223.47
0.0841,0.9159	-1223.46
0.0727,0.9273	-1224.13
0.0913,0.9087	-1224.11
0.0806,0.9194	-1223.42
0.0897,0.9103	-1223.90
0.0886,0.9114	-1223.78
0.0826,0.9174	-1223.41
0.0666,0.9334	-1225.55
0.0733,0.9267	-1224.05
0.0797,0.9203	-1223.45
0.0856,0.9144	-1223.53
0.0838,0.9162	-1223.44
0.0864,0.9136	-1223.58
0.0681,0.9319	-1225.13
0.0772,0.9228	-1223.59
0.0871,0.9129	-1223.63
0.0727,0.9273	-1224.13
0.0763,0.9237	-1223.67
0.0846,0.9154	-1223.47
0.0693,0.9307	-1224.83
0.0773,0.9227	-1223.58
0.0727,0.9273	-1224.13
0.0854,0.9146	-1223.51
0.0813,0.9187	-1223.41
0.1004,0.8996	-1225.93
0.0776,0.9224	-1223.56
0.0784,0.9216	-1223.51
0.0788,0.9212	-1223.48
0.0916,0.9084	-1224.15
0.0883,0.9117	-1223.74
0.0934,0.9066	-1224.44
0.0915,0.9085	-1224.14
0.0694,0.9306	-1224.81
0.0774,0.9226	-1223.57
0.0876,0.9124	-1223.68
0.0996,0.9004	-1225.74
0.0854,0.9146	-1223.52
0.0948,0.9052	-1224.70
0.0736,0.9264	-1224.00
0.0823,0.9177	-1223.41
0.0890,0.9110	-1223.82
0.0901,0.9099	-1223.95
0.0821,0.9179	-1223.41
0.0834,0.9166	-1223.43
0.0880,0.9120	-1223.72
0.0897,0.9103	-1223.90
0.0941,0.9059	-1224.56
0.0877,0.9123	-1223.69
0.0775,0.9225	-1223.56
0.0972,0.9028	-1225.17
0.0814,0.9186	-1223.41
0.0861,0.9139	-1223.56
0.1027,0.8973	-1226.56
0.0737,0.9263	-1223.99
0.0926,0.9074	-1224.31
0.0842,0.9158	-1223.46
0.0960,0.9040	-1224.93
0.0912,0.9088	-1224.09
0.0981,0.9019	-1225.38
0.0778,0.9222	-1223.55
0.0868,0.9132	-1223.61
0.0807,0.9193	-1223.42
0.0919,0.9081	-1224.19
0.0854,0.9146	-1223.52
0.0828,0.9172	-1223.42
0.0862,0.9138	-1223.57
0.0732,0.9268	-1224.06
0.0781,0.9219	-1223.52
0.0868,0.9132	-1223.61
0.0785,0.9215	-1223.50
0.0808,0.9192	-1223.42
0.0884,0.9116	-1223.76
0.0686,0.9314	-1225.00
0.0881,0.9119	-1223.72
0.0886,0.9114	-1223.77
0.0704,0.9296	-1224.58
0.0880,0.9120	-1223.72
0.0861,0.9139	-1223.56
0.0790,0.9210	-1223.47
0.0913,0.9087	-1224.11
0.0810,0.9190	-1223.41
0.0737,0.9263	-1223.99
0.0911,0.9089	-1224.08
0.0757,0.9243	-1223.72
0.0766,0.9234	-1223.64
0.0935,0.9065	-1224.45
0.0715,0.9285	-1224.35
0.0828,0.9172	-1223.42
0.0848,0.9152	-1223.48
0.0791,0.9209	-1223.47
0.0713,0.9287	-1224.39
0.0842,0.9158	-1223.46
0.0738,0.9262	-1223.97
0.0843,0.9157	-1223.46
0.0898,0.9102	-1223.91
0.0867,0.9133	-1223.60
0.0665,0.9335	-1225.60
0.0880,0.9120	-1223.72
0.0969,0.9031	-1225.11
0.0845,0.9155	-1223.47
0.0886,0.9114	-1223.77
0.0848,0.9152	-1223.48
0.0816,0.9184	-1223.41
0.0918,0.9082	-1224.19
0.0883,0.9117	-1223.75
0.0822,0.9178	-1223.41
0.0985,0.9015	-1225.47
0.0887,0.9113	-1223.79
0.0742,0.9258	-1223.91
0.0817,0.9183	-1223.41
0.0856,0.9144	-1223.52
0.0825,0.9175	-1223.41
0.0891,0.9109	-1223.83
0.0890,0.9110	-1223.82
0.0944,0.9056	-1224.61
0.0937,0.9063	-1224.49
0.0957,0.9043	-1224.87
0.0739,0.9261	-1223.96
0.0955,0.9045	-1224.83
0.0874,0.9126	-1223.66
0.0934,0.9066	-1224.44
0.0695,0.9305	-1224.77
0.0881,0.9119	-1223.72
0.0894,0.9106	-1223.87
0.0934,0.9066	-1224.44
0.0778,0.9222	-1223.55
0.0844,0.9156	-1223.47
0.0815,0.9185	-1223.41
0.0803,0.9197	-1223.43
0.0703,0.9297	-1224.61
0.1004,0.8996	-1225.95
0.0693,0.9307	-1224.83
0.0853,0.9147	-1223.51
0.0789,0.9211	-1223.48
0.0779,0.9221	-1223.54
0.0818,0.9182	-1223.41
0.0830,0.9170	-1223.42
0.0848,0.9152	-1223.48
0.0811,0.9189	-1223.41
0.0765,0.9235	-1223.64
0.0890,0.9110	-1223.82
0.0799,0.9201	-1223.44
0.0916,0.9084	-1224.15
0.0884,0.9116	-1223.76
0.0782,0.9218	-1223.52
0.0806,0.9194	-1223.42
0.0886,0.9114	-1223.77
0.0831,0.9169	-1223.42
0.0846,0.9154	-1223.47
0.0899,0.9101	-1223.93
0.0920,0.9080	-1224.21
0.0736,0.9264	-1224.00
0.0789,0.9211	-1223.48
0.0744,0.9256	-1223.88
0.0869,0.9131	-1223.62
0.0856,0.9144	-1223.53
0.0763,0.9237	-1223.67
0.0837,0.9163	-1223.44
0.0810,0.9190	-1223.41
0.0783,0.9217	-1223.51
0.0818,0.9182	-1223.41
0.0833,0.9167	-1223.43
0.0722,0.9278	-1224.23
0.0783,0.9217	-1223.51
0.0871,0.9129	-1223.64
0.0786,0.9214	-1223.49
0.0924,0.9076	-1224.27
0.0971,0.9029	-1225.15
0.0757,0.9243	-1223.72
0.0820,0.9180	-1223.41
0.0825,0.9175	-1223.41
0.0817,0.9183	-1223.41
0.0845,0.9155	-1223.47
0.0846,0.9154	-1223.47
0.0805,0.9195	-1223.42
0.0805,0.9195	-1223.42
0.0916,0.9084	-1224.15
0.0779,0.9221	-1223.54
0.0822,0.9178	-1223.41
0.0824,0.9176	-1223.41
0.0807,0.9193	-1223.42
0.0796,0.9204	-1223.45
0.0856,0.9144	-1223.53
0.0834,0.9166	-1223.43
0.0885,0.9115	-1223.77
0.0728,0.9272	-1224.12
0.0793,0.9207	-1223.46
0.0795,0.9205	-1223.45
0.0728,0.9272	-1224.12
0.0732,0.9268	-1224.05
0.0861,0.9139	-1223.56
0.0742,0.9258	-1223.91
0.0788,0.9212	-1223.48
0.0979,0.9021	-1225.33
0.0812,0.9188	-1223.41
0.0780,0.9220	-1223.53
0.0839,0.9161	-1223.45
0.0674,0.9326	-1225.32
0.0883,0.9117	-1223.74
0.0818,0.9182	-1223.41
0.0819,0.9181	-1223.41
0.0785,0.9215	-1223.50
0.0752,0.9248	-1223.79
0.0780,0.9220	-1223.53
0.0842,0.9158	-1223.46
0.0870,0.9130	-1223.63
0.0786,0.9214	-1223.49
0.0918,0.9082	-1224.18
0.0786,0.9214	-1223.50
0.0749,0.9251	-1223.82
0.0848,0.9152	-1223.48
0.0895,0.9105	-1223.88
0.0879,0.9121	-1223.71
0.0929,0.9071	-1224.36
0.0809,0.9191	-1223.42
0.0714,0.9286	-1224.37
0.0819,0.9181	-1223.41
0.0723,0.9277	-1224.21
0.0784,0.9216	-1223.50
0.0936,0.9064	-1224.48
0.0738,0.9262	-1223.97
0.0729,0.9271	-1224.10
0.0763,0.9237	-1223.66
0.0833,0.9167	-1223.43
0.0815,0.9185	-1223.41
0.0895,0.9105	-1223.88
0.0743,0.9257	-1223.90
0.0776,0.9224	-1223.56
0.0885,0.9115	-1223.77
0.0872,0.9128	-1223.64
0.0871,0.9129	-1223.64
0.0948,0.9052	-1224.69
0.0781,0.9219	-1223.52
0.0874,0.9126	-1223.66
0.0824,0.9176	-1223.41
0.0790,0.9210	-1223.48
0.0803,0.9197	-1223.43
0.0928,0.9072	-1224.35
0.0890,0.9110	-1223.82
0.0797,0.9203	-1223.44
0.0792,0.9208	-1223.47
0.0734,0.9266	-1224.03
0.0927,0.9073	-1224.32
0.0919,0.9081	-1224.19
0.0877,0.9123	-1223.69
0.0810,0.9190	-1223.41
0.0748,0.9252	-1223.83
0.0782,0.9218	-1223.52
0.0990,0.9010	-1225.59
0.0847,0.9153	-1223.48
0.0927,0.9073	-1224.33
0.0780,0.9220	-1223.53
0.0853,0.9147	-1223.51
0.0864,0.9136	-1223.58
0.0863,0.9137	-1223.57
0.0930,0.9070	-1224.37
0.0812,0.9188	-1223.41
0.0861,0.9139	-1223.56
0.0950,0.9050	-1224.72
0.0851,0.9149	-1223.50
0.0847,0.9153	-1223.48
0.0866,0.9134	-1223.60
0.0922,0.9078	-1224.24
0.0963,0.9037	-1224.99
0.0807,0.9193	-1223.42
0.0794,0.9206	-1223.46
0.0935,0.9065	-1224.46
0.0828,0.9172	-1223.42
0.0990,0.9010	-1225.60
0.0908,0.9092	-1224.04
0.0857,0.9143	-1223.53
0.0906,0.9094	-1224.01
0.0874,0.9126	-1223.66
0.0784,0.9216	-1223.51
0.0888,0.9112	-1223.79
0.0875,0.9125	-1223.67
0.0740,0.9260	-1223.93
0.0856,0.9144	-1223.53
0.0879,0.9121	-1223.71
0.0845,0.9155	-1223.47
0.0812,0.9188	-1223.41
0.0741,0.9259	-1223.92
0.0856,0.9144	-1223.53
0.0872,0.9128	-1223.64
0.0719,0.9281	-1224.28
0.0806,0.9194	-1223.42
0.0895,0.9105	-1223.88
0.0739,0.9261	-1223.95
0.0854,0.9146	-1223.52
0.0823,0.9177	-1223.41
0.0674,0.9326	-1225.32
0.0882,0.9118	-1223.74
0.0747,0.9253	-1223.84
0.0666,0.9334	-1225.56
0.0830,0.9170	-1223.42
0.0835,0.9165	-1223.43
0.0807,0.9193	-1223.42
0.0993,0.9007	-1225.67
0.0662,0.9338	-1225.68
0.0769,0.9231	-1223.61
0.0873,0.9127	-1223.65
0.0770,0.9230	-1223.60
0.0807,0.9193	-1223.42
0.1018,0.8982	-1226.30
0.0761,0.9239	-1223.69
0.0823,0.9177	-1223.41
0.0863,0.9137	-1223.58
0.0839,0.9161	-1223.44
0.0958,0.9042	-1224.89
0.0879,0.9121	-1223.70
0.0828,0.9172	-1223.42
0.0740,0.9260	-1223.93
0.0837,0.9163	-1223.44
0.0802,0.9198	-1223.43
0.0862,0.9138	-1223.56
0.0893,0.9107	-1223.86
0.0970,0.9030	-1225.13
0.0782,0.9218	-1223.52
0.0790,0.9210	-1223.47
0.0797,0.9203	-1223.44
0.0854,0.9146	-1223.51
0.0917,0.9083	-1224.17
0.0893,0.9107	-1223.86
0.0778,0.9222	-1223.54
0.0768,0.9232	-1223.62
0.0690,0.9310	-1224.90
0.0824,0.9176	-1223.41
0.0863,0.9137	-1223.57
0.0812,0.9188	-1223.41
0.0805,0.9195	-1223.42
0.0845,0.9155	-1223.47
0.0671,0.9329	-1225.41
0.0824,0.9176	-1223.41
0.0819,0.9181	-1223.41
0.0860,0.9140	-1223.56
0.0728,0.9272	-1224.12
0.0856,0.9144	-1223.53
0.0735,0.9265	-1224.01
0.0756,0.9244	-1223.74
0.0846,0.9154	-1223.48
0.0764,0.9236	-1223.66
0.0671,0.9329	-1225.40
0.0832,0.9168	-1223.43
0.0772,0.9228	-1223.59
0.0888,0.9112	-1223.80
0.0799,0.9201	-1223.44
0.0763,0.9237	-1223.67
0.0750,0.9250	-1223.81
0.0831,0.9169	-1223.42
0.0640,0.9360	-1226.44
0.0738,0.9262	-1223.97
0.0863,0.9137	-1223.57
0.0729,0.9271	-1224.10
0.0822,0.9178	-1223.41
0.0850,0.9150	-1223.50
0.0715,0.9285	-1224.35
0.0660,0.9340	-1225.75
0.0853,0.9147	-1223.51
0.0798,0.9202	-1223.44
0.0779,0.9221	-1223.54
0.0903,0.9097	-1223.98
0.0730,0.9270	-1224.09
0.0741,0.9259	-1223.93
0.0825,0.9175	-1223.41
0.0826,0.9174	-1223.42
0.0855,0.9145	-1223.52
0.0922,0.9078	-1224.24
0.0861,0.9139	-1223.56
0.0792,0.9208	-1223.47
0.0864,0.9136	-1223.58
0.0762,0.9238	-1223.67
0.0759,0.9241	-1223.71
0.0844,0.9156	-1223.47
0.0813,0.9187	-1223.41
0.0786,0.9214	-1223.50
0.0766,0.9234	-1223.64
0.0804,0.9196	-1223.43
0.0898,0.9102	-1223.92
0.0876,0.9124	-1223.68
0.0833,0.9167	-1223.43
0.0823,0.9177	-1223.41
0.0775,0.9225	-1223.56
0.0757,0.9243	-1223.73
0.0787,0.9213	-1223.49
0.0885,0.9115	-1223.76
0.0737,0.9263	-1223.99
0.0874,0.9126	-1223.66
0.0883,0.9117	-1223.75
0.0841,0.9159	-1223.45
0.0753,0.9247	-1223.78
0.0744,0.9256	-1223.89
0.0739,0.9261	-1223.96
0.0893,0.9107	-1223.85
0.0882,0.9118	-1223.74
0.0872,0.9128	-1223.64
0.0836,0.9164	-1223.44
0.0732,0.9268	-1224.05
0.0816,0.9184	-1223.41
0.0831,0.9169	-1223.42
0.0811,0.9189	-1223.41
0.0894,0.9106	-1223.86
0.0885,0.9115	-1223.76
0.0803,0.9197	-1223.43
0.0789,0.9211	-1223.48
0.0769,0.9231	-1223.61
0.0726,0.9274	-1224.16
0.0744,0.9256	-1223.88
0.0866,0.9134	-1223.60
0.0843,0.9157	-1223.46
0.0859,0.9141	-1223.55
0.0890,0.9110	-1223.81
0.0787,0.9213	-1223.49
0.0777,0.9223	-1223.55
0.0931,0.9069	-1224.39
0.0941,0.9059	-1224.56
0.0992,0.9008	-1225.64
0.0795,0.9205	-1223.45
0.0807,0.9193	-1223.42
0.0775,0.9225	-1223.57
0.0848,0.9152	-1223.48
0.0864,0.9136	-1223.58
0.1157,0.8843	-1231.06
0.0803,0.9197	-1223.43
0.0889,0.9111	-1223.80
0.0763,0.9237	-1223.67
0.0885,0.9115	-1223.76
0.0932,0.9068	-1224.40
0.0805,0.9195	-1223.42
0.0786,0.9214	-1223.49
0.0801,0.9199	-1223.43
0.0697,0.9303	-1224.72
0.0846,0.9154	-1223.47
0.0925,0.9075	-1224.29
0.0688,0.9312	-1224.95
0.0793,0.9207	-1223.46
0.0893,0.9107	-1223.86
0.0857,0.9143	-1223.54
0.0807,0.9193	-1223.42
0.0894,0.9106	-1223.87
0.0627,0.9373	-1226.94
0.0787,0.9213	-1223.49
0.0889,0.9111	-1223.81
0.0868,0.9132	-1223.61
0.0878,0.9122	-1223.70
0.0906,0.9094	-1224.01
0.0687,0.9313	-1224.97
0.0862,0.9138	-1223.57
0.0898,0.9102	-1223.91
0.0948,0.9052	-1224.69
0.0799,0.9201	-1223.44
0.0765,0.9235	-1223.65
0.0739,0.9261	-1223.96
0.0914,0.9086	-1224.12
0.0829,0.9171	-1223.42
0.0838,0.9162	-1223.44
0.0815,0.9185	-1223.41
0.0870,0.9130	-1223.62
0.0718,0.9282	-1224.30
0.0897,0.9103	-1223.90
0.0752,0.9248	-1223.78
0.0892,0.9108	-1223.85
0.0870,0.9130	-1223.63
0.0836,0.9164	-1223.44
0.0849,0.9151	-1223.49
0.0754,0.9246	-1223.76
0.0859,0.9141	-1223.55
0.0790,0.9210	-1223.47
0.0865,0.9135	-1223.59
0.0894,0.9106	-1223.86
0.0956,0.9044	-1224.85
0.0854,0.9146	-1223.52
0.0818,0.9182	-1223.41
0.0775,0.9225	-1223.57
0.0843,0.9157	-1223.46
0.0811,0.9189	-1223.41
0.0899,0.9101	-1223.92
0.0758,0.9242	-1223.72
0.0772,0.9228	-1223.58
0.0881,0.9119	-1223.73
0.0864,0.9136	-1223.58
0.0843,0.9157	-1223.46
0.1015,0.8985	-1226.22
0.0792,0.9208	-1223.47
0.0936,0.9064	-1224.47
0.0891,0.9109	-1223.83
0.0814,0.9186	-1223.41
0.0723,0.9277	-1224.21
0.0967,0.9033	-1225.07
0.0785,0.9215	-1223.50
0.0755,0.9245	-1223.75
0.0727,0.9273	-1224.14
0.0794,0.9206	-1223.46
0.0806,0.9194	-1223.42
0.0946,0.9054	-1224.66
0.0763,0.9237	-1223.66
0.0868,0.9132	-1223.61
0.0890,0.9110	-1223.81
0.0911,0.9089	-1224.08
0.0899,0.9101	-1223.92
0.0883,0.9117	-1223.74
0.0668,0.9332	-1225.49
0.0821,0.9179	-1223.41
0.0799,0.9201	-1223.44
0.0742,0.9258	-1223.92
0.1012,0.8988	-1226.14
0.0765,0.9235	-1223.65
0.0754,0.9246	-1223.76
0.0834,0.9166	-1223.43
0.0794,0.9206	-1223.46
0.0857,0.9143	-1223.53
0.1061,0.8939	-1227.58
0.0827,0.9173	-1223.42
0.0765,0.9235	-1223.64
0.0755,0.9245	-1223.75
0.0886,0.9114	-1223.78
0.0952,0.9048	-1224.77
0.0962,0.9038	-1224.97
0.0769,0.9231	-1223.62
0.0946,0.9054	-1224.66
0.0932,0.9068	-1224.40
0.0798,0.9202	-1223.44
0.0768,0.9232	-1223.63
0.0776,0.9224	-1223.56
0.0813,0.9187	-1223.41
0.0918,0.9082	-1224.18
0.0813,0.9187	-1223.41
0.0820,0.9180	-1223.41
0.0827,0.9173	-1223.42
0.0802,0.9198	-1223.43
0.0823,0.9177	-1223.41
0.0941,0.9059	-1224.57
0.0909,0.9091	-1224.06
0.0793,0.9207	-1223.46
0.0822,0.9178	-1223.41
0.0735,0.9265	-1224.01
0.0808,0.9192	-1223.42
0.0784,0.9216	-1223.50
0.0833,0.9167	-1223.43
0.0871,0.9129	-1223.64
0.0820,0.9180	-1223.41
0.0754,0.9246	-1223.76
0.0850,0.9150	-1223.50
0.0944,0.9056	-1224.62
0.0791,0.9209	-1223.47
0.0947,0.9053	-1224.67
0.0820,0.9180	-1223.41
0.0846,0.9154	-1223.48
0.0862,0.9138	-1223.56
0.0827,0.9173	-1223.42
0.0738,0.9262	-1223.97
0.0913,0.9087	-1224.12
0.0864,0.9136	-1223.58
0.0853,0.9147	-1223.51
0.0828,0.9172	-1223.42
0.0881,0.9119	-1223.72
0.0761,0.9239	-1223.69
0.0851,0.9149	-1223.50
0.0905,0.9095	-1224.00
0.0848,0.9152	-1223.48
0.0745,0.9255	-1223.88
0.0854,0.9146	-1223.52
0.0750,0.9250	-1223.81
0.0899,0.9101	-1223.93
0.0902,0.9098	-1223.96
0.0907,0.9093	-1224.03
0.0885,0.9115	-1223.77
0.0859,0.9141	-1223.55
0.0883,0.9117	-1223.74
0.0803,0.9197	-1223.43
0.0983,0.9017	-1225.43
0.0930,0.9070	-1224.37
0.0701,0.9299	-1224.64
0.0819,0.9181	-1223.41
0.0865,0.9135	-1223.59
0.0914,0.9086	-1224.12
0.1007,0.8993	-1226.01
0.0711,0.9289	-1224.43
0.0810,0.9190	-1223.41
0.0935,0.9065	-1224.46
0.0793,0.9207	-1223.46
0.0954,0.9046	-1224.80
0.1032,0.8968	-1226.68
0.0832,0.9168	-1223.43
0.0907,0.9093	-1224.03
0.1004,0.8996	-1225.94
0.0755,0.9245	-1223.75
0.0916,0.9084	-1224.15
0.0931,0.9069	-1224.38
0.0806,0.9194	-1223.42
0.0873,0.9127	-1223.65
0.0771,0.9229	-1223.60
0.0736,0.9264	-1224.00
0.0720,0.9280	-1224.26
0.0674,0.9326	-1225.34
0.0840,0.9160	-1223.45
0.0732,0.9268	-1224.06
0.0793,0.9207	-1223.46
0.0894,0.9106	-1223.86
0.0767,0.9233	-1223.63
0.0728,0.9272	-1224.13
0.0949,0.9051	-1224.72
0.0901,0.9099	-1223.95
0.0853,0.9147	-1223.51
0.0801,0.9199	-1223.43
0.0800,0.9200	-1223.43
0.0676,0.9324	-1225.28
0.0862,0.9138	-1223.56
0.0750,0.9250	-1223.81
0.0789,0.9211	-1223.48
0.0722,0.9278	-1224.23
0.0757,0.9243	-1223.73
0.0775,0.9225	-1223.56
0.0860,0.9140	-1223.55
0.0806,0.9194	-1223.42
0.0974,0.9026	-1225.21
0.0615,0.9385	-1227.43
0.0683,0.9317	-1225.08
0.0888,0.9112	-1223.80
0.0966,0.9034	-1225.05
0.0791,0.9209	-1223.47
0.0963,0.9037	-1224.99
0.0647,0.9353	-1226.19
0.0787,0.9213	-1223.49
0.0923,0.9077	-1224.25
0.0925,0.9075	-1224.28
0.0891,0.9109	-1223.83
0.0848,0.9152	-1223.48
0.0775,0.9225	-1223.57
0.0754,0.9246	-1223.76
0.0966,0.9034	-1225.05
0.0836,0.9164	-1223.44
0.0899,0.9101	-1223.93
0.0843,0.9157	-1223.46
0.0844,0.9156	-1223.47
0.0719,0.9281	-1224.29
0.0860,0.9140	-1223.55
0.0885,0.9115	-1223.77
0.0775,0.9225	-1223.57
0.0842,0.9158	-1223.46
0.0720,0.9280	-1224.26
0.0741,0.9259	-1223.93
0.0774,0.9226	-1223.57
0.0734,0.9266	-1224.03
0.0781,0.9219	-1223.52
0.0772,0.9228	-1223.59
0.0906,0.9094	-1224.02
0.0660,0.9340	-1225.74
0.0851,0.9149	-1223.50
0.0877,0.9123	-1223.68
0.0865,0.9135	-1223.59
0.0910,0.9090	-1224.07
0.0853,0.9147	-1223.51
0.0842,0.9158	-1223.46
0.0814,0.9186	-1223.41
0.0849,0.9151	-1223.49
0.0826,0.9174	-1223.41
0.0731,0.9269	-1224.07
0.0820,0.9180	-1223.41
0.0860,0.9140	-1223.55
0.0818,0.9182	-1223.41
0.0892,0.9108	-1223.84
0.0895,0.9105	-1223.87
0.0686,0.9314	-1225.00
0.0826,0.9174	-1223.41
0.0909,0.9091	-1224.06
0.0884,0.9116	-1223.75
0.0905,0.9095	-1224.00
0.0972,0.9028	-1225.18
0.0615,0.9385	-1227.43
0.0864,0.9136	-1223.58
0.0819,0.9181	-1223.41
0.0829,0.9171	-1223.42
0.0872,0.9128	-1223.65
0.0890,0.9110	-1223.82
0.0817,0.9183	-1223.41
0.0760,0.9240	-1223.69
0.0853,0.9147	-1223.51
0.0825,0.9175	-1223.41
0.0737,0.9263	-1223.99
0.0756,0.9244	-1223.74
0.0785,0.9215	-1223.50
0.0716,0.9284	-1224.33
0.0946,0.9054	-1224.66
0.0884,0.9116	-1223.75
0.0739,0.9261	-1223.96
0.0857,0.9143	-1223.53
0.0834,0.9166	-1223.43
0.0792,0.9208	-1223.47
0.0910,0.9090	-1224.07
0.0983,0.9017	-1225.43
0.0900,0.9100	-1223.93
0.0844,0.9156	-1223.46
0.0733,0.9267	-1224.05
0.0810,0.9190	-1223.41
0.0904,0.9096	-1223.99
0.0764,0.9236	-1223.65
0.1027,0.8973	-1226.56
0.0890,0.9110	-1223.81
0.0810,0.9190	-1223.41
0.0771,0.9229	-1223.59
0.0852,0.9148	-1223.51
0.0718,0.9282	-1224.29
0.1013,0.8987	-1226.17
0.0852,0.9148	-1223.50
0.0851,0.9149	-1223.50
0.0697,0.9303	-1224.73
0.0770,0.9230	-1223.60
0.0833,0.9167	-1223.43
0.1027,0.8973	-1226.56
0.0861,0.9139	-1223.56
0.0805,0.9195	-1223.42
0.0781,0.9219	-1223.52
0.0778,0.9222	-1223.54
0.0810,0.9190	-1223.41
0.0972,0.9028	-1225.17
0.0807,0.9193	-1223.42
0.0768,0.9232	-1223.62
0.0784,0.9216	-1223.50
0.0955,0.9045	-1224.83
0.0833,0.9167	-1223.43
0.0787,0.9213	-1223.49
0.0865,0.9135	-1223.59
0.0853,0.9147	-1223.51
0.0905,0.9095	-1224.01
0.0953,0.9047	-1224.79
0.0895,0.9105	-1223.87
0.0888,0.9112	-1223.80
0.0903,0.9097	-1223.97
0.0769,0.9231	-1223.61
0.0884,0.9116	-1223.76
0.0744,0.9256	-1223.88
0.0773,0.9227	-1223.58
0.0938,0.9062	-1224.52
0.0934,0.9066	-1224.43
0.0803,0.9197	-1223.43
0.0753,0.9247	-1223.77
0.0726,0.9274	-1224.16
0.0747,0.9253	-1223.85
0.0874,0.9126	-1223.66
0.0874,0.9126	-1223.66
0.0875,0.9125	-1223.67
0.0814,0.9186	-1223.41
0.0765,0.9235	-1223.65
0.0859,0.9141	-1223.55
0.0916,0.9084	-1224.15
0.0802,0.9198	-1223.43
0.0916,0.9084	-1224.16
0.0838,0.9162	-1223.44
0.0797,0.9203	-1223.44
0.0763,0.9237	-1223.67
0.0897,0.9103	-1223.90
0.0839,0.9161	-1223.45
0.0785,0.9215	-1223.50
0.0802,0.9198	-1223.43
0.0904,0.9096	-1223.98
0.0940,0.9060	-1224.55
0.0892,0.9108	-1223.84
0.0876,0.9124	-1223.68
0.0869,0.9131	-1223.62
0.0844,0.9156	-1223.46
0.0971,0.9029	-1225.15
0.0925,0.9075	-1224.29
0.0825,0.9175	-1223.41
0.0778,0.9222	-1223.54
0.0894,0.9106	-1223.87
0.0976,0.9024	-1225.26
0.0762,0.9238	-1223.68
0.0848,0.9152	-1223.48
0.0761,0.9239	-1223.69
0.0832,0.9168	-1223.43
0.0804,0.9196	-1223.43
0.0782,0.9218	-1223.52
0.0783,0.9217	-1223.51
0.0776,0.9224	-1223.56
0.0743,0.9257	-1223.90
0.0836,0.9164	-1223.44
0.0840,0.9160	-1223.45
0.0865,0.9135	-1223.59
0.0750,0.9250	-1223.80
0.0719,0.9281	-1224.28
0.0972,0.9028	-1225.18
0.0767,0.9233	-1223.63
0.0863,0.9137	-1223.58
0.0727,0.9273	-1224.13
0.0715,0.9285	-1224.36
0.0706,0.9294	-1224.54
0.0929,0.9071	-1224.36
0.0746,0.9254	-1223.86
0.0841,0.9159	-1223.45
0.0814,0.9186	-1223.41
0.0933,0.9067	-1224.42
0.0760,0.9240	-1223.70
0.0989,0.9011	-1225.55
0.0787,0.9213	-1223.49
0.0720,0.9280	-1224.27
0.0724,0.9276	-1224.19
0.0795,0.9205	-1223.45
0.0901,0.9099	-1223.95
0.0961,0.9039	-1224.95
0.0683,0.9317	-1225.08
0.0746,0.9254	-1223.86
0.0789,0.9211	-1223.48
0.0758,0.9242	-1223.72
0.0906,0.9094	-1224.01
0.1052,0.8948	-1227.28
0.0716,0.9284	-1224.33
0.0783,0.9217	-1223.51
0.0774,0.9226	-1223.57
0.0879,0.9121	-1223.71
0.0814,0.9186	-1223.41
0.0987,0.9013	-1225.51
0.0802,0.9198	-1223.43
0.0837,0.9163	-1223.44
0.0751,0.9249	-1223.79
0.0935,0.9065	-1224.45
0.0847,0.9153	-1223.48
0.0875,0.9125	-1223.67
0.0677,0.9323	-1225.23
0.0732,0.9268	-1224.05
0.0836,0.9164	-1223.44
0.0927,0.9073	-1224.33
0.0838,0.9162	-1223.44
0.0878,0.9122	-1223.70
0.0775,0.9225	-1223.57
0.0856,0.9144	-1223.52
0.0835,0.9165	-1223.43
0.0812,0.9188	-1223.41
0.0807,0.9193	-1223.42
0.0795,0.9205	-1223.45
0.0700,0.9300	-1224.66
0.0828,0.9172	-1223.42
0.0875,0.9125	-1223.67
0.0788,0.9212	-1223.49
0.0830,0.9170	-1223.42
0.0855,0.9145	-1223.52
0.0695,0.9305	-1224.78
0.0848,0.9152	-1223.49
0.0816,0.9184	-1223.41
0.0796,0.9204	-1223.45
0.0932,0.9068	-1224.40
0.0706,0.9294	-1224.53
0.0779,0.9221	-1223.54
0.0880,0.9120	-1223.71
0.0903,0.9097	-1223.97
0.0753,0.9247	-1223.77
0.0804,0.9196	-1223.43
0.0784,0.9216	-1223.51
0.0769,0.9231	-1223.62
0.0915,0.9085	-1224.14
0.0860,0.9140	-1223.55
0.0785,0.9215	-1223.50
0.0739,0.9261	-1223.96
0.0835,0.9165	-1223.43
0.0724,0.9276	-1224.20
0.0911,0.9089	-1224.08
0.0740,0.9260	-1223.94
0.0753,0.9247	-1223.77
0.0799,0.9201	-1223.44
0.0796,0.9204	-1223.45
0.0771,0.9229	-1223.60
0.0863,0.9137	-1223.58
0.0692,0.9308	-1224.85
0.0848,0.9152	-1223.48
0.0783,0.9217	-1223.51
0.0874,0.9126	-1223.66
0.0809,0.9191	-1223.42
0.0933,0.9067	-1224.42
0.0735,0.9265	-1224.01
0.0876,0.9124	-1223.68
0.0867,0.9133	-1223.60
0.0906,0.9094	-1224.01
0.0759,0.9241	-1223.70
0.1012,0.8988	-1226.14
0.0798,0.9202	-1223.44
0.0860,0.9140	-1223.55
0.0892,0.9108	-1223.84
0.0791,0.9209	-1223.47
0.0783,0.9217	-1223.51
0.0842,0.9158	-1223.46
0.0787,0.9213	-1223.49
0.0877,0.9123	-1223.69
0.0771,0.9229	-1223.60
0.0801,0.9199	-1223.43
0.0805,0.9195	-1223.42
0.0945,0.9055	-1224.63
0.0809,0.9191	-1223.42
0.0830,0.9170	-1223.42
0.0887,0.9113	-1223.79
0.0856,0.9144	-1223.53
0.0817,0.9183	-1223.41
0.0968,0.9032	-1225.08
0.0798,0.9202	-1223.44
0.0737,0.9263	-1223.98
0.0886,0.9114	-1223.78
0.0852,0.9148	-1223.51
0.0828,0.9172	-1223.42
0.0846,0.9154	-1223.47
0.0848,0.9152	-1223.48
0.0775,0.9225	-1223.56
0.0814,0.9186	-1223.41
0.0796,0.9204	-1223.45
0.0788,0.9212	-1223.48
0.0815,0.9185	-1223.41
0.0845,0.9155	-1223.47
0.0714,0.9286	-1224.37
0.0781,0.9219	-1223.52
0.0905,0.9095	-1224.01
0.0859,0.9141	-1223.54
0.0904,0.9096	-1223.99
0.0786,0.9214	-1223.49
0.0690,0.9310	-1224.90
0.0752,0.9248	-1223.79
0.0838,0.9162	-1223.44
0.0820,0.9180	-1223.41
0.0880,0.9120	-1223.72
0.0786,0.9214	-1223.50
0.0732,0.9268	-1224.06
0.0847,0.9153	-1223.48
0.0803,0.9197	-1223.43
0.0780,0.9220	-1223.53
0.0873,0.9127	-1223.66
0.0814,0.9186	-1223.41
0.0756,0.9244	-1223.74
0.0867,0.9133	-1223.60
0.0864,0.9136	-1223.58
0.0841,0.9159	-1223.45
0.0934,0.9066	-1224.44
0.0803,0.9197	-1223.43
0.0681,0.9319	-1225.14
0.0839,0.9161	-1223.45
0.0867,0.9133	-1223.60
0.0811,0.9189	-1223.41
0.0785,0.9215	-1223.50
0.0817,0.9183	-1223.41
0.0810,0.9190	-1223.41
0.0689,0.9311	-1224.93
0.0891,0.9109	-1223.83
0.0844,0.9156	-1223.46
0.0696,0.9304	-1224.77
0.0829,0.9171	-1223.42
0.0806,0.9194	-1223.42
0.0792,0.9208	-1223.46
0.0823,0.9177	-1223.41
0.0823,0.9177	-1223.41
0.0760,0.9240	-1223.69
0.0756,0.9244	-1223.74
0.0723,0.9277	-1224.21
0.0814,0.9186	-1223.41
0.0710,0.9290	-1224.45
0.0875,0.9125	-1223.67
0.0834,0.9166	-1223.43
0.0804,0.9196	-1223.42
0.0695,0.9305	-1224.79
0.0875,0.9125	-1223.67
0.0745,0.9255	-1223.87
0.0703,0.9297	-1224.59
0.0844,0.9156	-1223.47
0.0913,0.9087	-1224.11
0.0792,0.9208	-1223.46
0.0811,0.9189	-1223.41
0.0873,0.9127	-1223.65
0.0749,0.9251	-1223.82
0.0899,0.9101	-1223.92
0.0790,0.9210	-1223.47
0.0793,0.9207	-1223.46
0.0823,0.9177	-1223.41
0.0829,0.9171	-1223.42
0.0816,0.9184	-1223.41
0.0924,0.9076	-1224.27
0.0894,0.9106	-1223.87
0.0800,0.9200	-1223.44
0.0849,0.9151	-1223.49
0.0755,0.9245	-1223.75
0.0940,0.9060	-1224.54
0.1001,0.8999	-1225.87
0.0813,0.9187	-1223.41
0.0740,0.9260	-1223.94
0.0894,0.9106	-1223.87
0.0806,0.9194	-1223.42
0.0924,0.9076	-1224.27
0.0816,0.9184	-1223.41
0.0700,0.9300	-1224.68
0.0721,0.9279	-1224.25
0.0901,0.9099	-1223.95
0.0870,0.9130	-1223.63
0.0775,0.9225	-1223.57
0.0821,0.9179	-1223.41
0.0815,0.9185	-1223.41
0.0677,0.9323	-1225.24
0.0877,0.9123	-1223.69
0.0660,0.9340	-1225.74
0.0854,0.9146	-1223.52
0.0945,0.9055	-1224.64
0.0811,0.9189	-1223.41
0.0761,0.9239	-1223.69
0.0806,0.9194	-1223.42
0.0828,0.9172	-1223.42
0.0791,0.9209	-1223.47
0.0991,0.9009	-1225.60
0.0862,0.9138	-1223.57
0.0724,0.9276	-1224.19
0.0626,0.9374	-1226.99
0.0785,0.9215	-1223.50
0.0816,0.9184	-1223.41
0.0809,0.9191	-1223.42
0.0730,0.9270	-1224.08
0.0875,0.9125	-1223.67
0.0647,0.9353	-1226.20
0.0802,0.9198	-1223.43
0.0878,0.9122	-1223.70
0.0759,0.9241	-1223.71
0.0824,0.9176	-1223.41
0.0861,0.9139	-1223.56
0.0597,0.9403	-1228.26
0.0824,0.9176	-1223.41
0.0909,0.9091	-1224.05
0.0753,0.9247	-1223.78
0.0771,0.9229	-1223.59
0.0925,0.9075	-1224.28
0.0811,0.9189	-1223.41
0.0878,0.9122	-1223.69
0.0856,0.9144	-1223.53
0.0692,0.9308	-1224.86
0.0839,0.9161	-1223.45
0.0774,0.9226	-1223.58
0.0773,0.9227	-1223.58
0.0979,0.9021	-1225.34
0.0785,0.9215	-1223.50
0.0871,0.9129	-1223.64
0.0935,0.9065	-1224.45
0.0844,0.9156	-1223.47
0.0782,0.9218	-1223.52
0.0841,0.9159	-1223.45
0.0721,0.9279	-1224.25
0.0938,0.9062	-1224.50
0.0817,0.9183	-1223.41
0.0704,0.9296	-1224.57
0.0927,0.9073	-1224.32
0.0776,0.9224	-1223.56
0.0757,0.9243	-1223.73
0.0872,0.9128	-1223.64
0.0788,0.9212	-1223.49
0.0775,0.9225	-1223.56
0.0842,0.9158	-1223.46
